stair.thisTrialN,stair.stepSize,stair.intensity,thisRow.t,notes,trial.started,fixation.started,grating.started,key_resp.started,fixation.stopped,grating.stopped,trial.stopped,corrAns,number of trials,stair.response,tilt,key_resp.corr,,key_resp.rt,participant,session,date,expName,psychopyVersion,frameRate,expStart
0,2,10,0.0445426,,0.0332397,0.0445426,0.5264391,0.5264391,0.563146,0.8278389,19.4416787,right,1,1,10,1,,18.8864048,691490,1,2024-09-09_23h47.21.566,adaptive_staircase,2024.1.5,None,2024-09-09 23h47.27.156139 +0530
1,2,8,19.4601137,,19.4418055,19.4601137,19.9458956,19.9458956,19.9625223,20.2615438,21.8007645,left,2,1,-8,1,,1.8507086,691490,1,2024-09-09_23h47.21.566,adaptive_staircase,2024.1.5,None,2024-09-09 23h47.27.156139 +0530
2,1,6,21.8117639,,21.8008897,21.8117639,22.312905,22.312905,22.312905,22.6118442,23.3648935,left,3,0,-6,0,,1.0480482,691490,1,2024-09-09_23h47.21.566,adaptive_staircase,2024.1.5,None,2024-09-09 23h47.27.156139 +0530
3,1,7,23.3786366,,23.3650182,23.3786366,23.87928,23.87928,23.87928,24.1793011,25.3801341,left,4,1,-7,1,,1.4904965,691490,1,2024-09-09_23h47.21.566,adaptive_staircase,2024.1.5,None,2024-09-09 23h47.27.156139 +0530
4,1,7,25.3957591,,25.380284,25.3957591,25.878733,25.878733,25.8961377,26.1790225,27.0971315,left,5,1,-7,1,,1.2034899,691490,1,2024-09-09_23h47.21.566,adaptive_staircase,2024.1.5,None,2024-09-09 23h47.27.156139 +0530
5,1,7,27.1120493,,27.0972679,27.1120493,27.6124703,27.6124703,27.6124703,27.9117695,29.1133127,right,6,1,7,1,,1.4900749,691490,1,2024-09-09_23h47.21.566,adaptive_staircase,2024.1.5,None,2024-09-09 23h47.27.156139 +0530
6,0.5,6,29.1289941,,29.1134465,29.1289941,29.6125267,29.6125267,29.6292671,29.9124069,31.6475686,left,7,0,-6,0,,2.0268116,691490,1,2024-09-09_23h47.21.566,adaptive_staircase,2024.1.5,None,2024-09-09 23h47.27.156139 +0530
7,0.5,6.5,31.6625002,,31.6476864,31.6625002,32.1630584,32.1630584,32.1630584,32.4619609,33.5982736,right,9,1,6.5,1,,1.4179677,691490,1,2024-09-09_23h47.21.566,adaptive_staircase,2024.1.5,None,2024-09-09 23h47.27.156139 +0530
8,0.5,6.5,33.6153013,,33.5984679,33.6153013,34.1121213,34.1121213,34.1294539,34.412285,34.9801,left,10,1,-6.5,1,,0.8590455,691490,1,2024-09-09_23h47.21.566,adaptive_staircase,2024.1.5,None,2024-09-09 23h47.27.156139 +0530
9,0.5,6.5,34.9950151,,34.9802184,34.9950151,35.4963305,35.4963305,35.4963305,35.7957889,36.6643263,left,11,1,-6.5,1,,1.1638111,691490,1,2024-09-09_23h47.21.566,adaptive_staircase,2024.1.5,None,2024-09-09 23h47.27.156139 +0530
10,0.5,6,36.6788528,,36.6644592,36.6788528,37.179358,37.179358,37.179358,37.4793304,38.0816288,left,12,0,-6,0,,0.8966129,691490,1,2024-09-09_23h47.21.566,adaptive_staircase,2024.1.5,None,2024-09-09 23h47.27.156139 +0530
11,0.5,6.5,38.0957397,,38.0817869,38.0957397,38.5963577,38.5963577,38.5963577,38.8953827,39.5805455,right,13,0,6.5,0,,0.9751198,691490,1,2024-09-09_23h47.21.566,adaptive_staircase,2024.1.5,None,2024-09-09 23h47.27.156139 +0530
12,0.5,7,39.5958573,,39.5806767,39.5958573,40.0964177,40.0964177,40.0964177,40.3948359,41.3975016,right,14,1,7,1,,1.2855538,691490,1,2024-09-09_23h47.21.566,adaptive_staircase,2024.1.5,None,2024-09-09 23h47.27.156139 +0530
13,0.5,7,41.4121749,,41.3976527,41.4121749,41.9126493,41.9126493,41.9126493,42.2122465,42.7827822,left,15,1,-7,1,,0.8663224,691490,1,2024-09-09_23h47.21.566,adaptive_staircase,2024.1.5,None,2024-09-09 23h47.27.156139 +0530
14,0.5,7,42.7955048,,42.7828947,42.7955048,43.2957409,43.2957409,43.2957409,43.5958664,44.0305323,left,16,1,-7,1,,0.7200212,691490,1,2024-09-09_23h47.21.566,adaptive_staircase,2024.1.5,None,2024-09-09 23h47.27.156139 +0530
15,0.5,6.5,44.0456882,,44.0306717,44.0456882,44.5464866,44.5464866,44.5464866,44.8458164,45.4465035,left,17,0,-6.5,0,,0.890136,691490,1,2024-09-09_23h47.21.566,adaptive_staircase,2024.1.5,None,2024-09-09 23h47.27.156139 +0530
16,0.5,7,45.4634275,,45.4466405,45.4634275,45.9460597,45.9460597,45.9630436,46.2460498,47.0296269,left,18,0,-7,0,,1.0738401,691490,1,2024-09-09_23h47.21.566,adaptive_staircase,2024.1.5,None,2024-09-09 23h47.27.156139 +0530
17,0.5,7.5,47.0453843,,47.0297515,47.0453843,47.5290211,47.5290211,47.545853,47.8287614,48.5311073,left,19,0,-7.5,0,,0.9856644,691490,1,2024-09-09_23h47.21.566,adaptive_staircase,2024.1.5,None,2024-09-09 23h47.27.156139 +0530
18,0.5,8,48.5453894,,48.5312519,48.5453894,49.0449578,49.0449578,49.0449578,49.3456369,50.3638094,left,20,1,-8,1,,1.3060568,691490,1,2024-09-09_23h47.21.566,adaptive_staircase,2024.1.5,None,2024-09-09 23h47.27.156139 +0530
19,0.5,8,50.3791183,,50.3639795,50.3791183,50.8791067,50.8791067,50.8791067,51.1794336,52.3139004,right,21,1,8,1,,1.4192688,691490,1,2024-09-09_23h47.21.566,adaptive_staircase,2024.1.5,None,2024-09-09 23h47.27.156139 +0530
20,0.5,8,52.3288045,,52.3140259,52.3288045,52.8126638,52.8126638,52.8292482,53.1124961,54.9488961,left,22,0,-8,0,,2.13127,691490,1,2024-09-09_23h47.21.566,adaptive_staircase,2024.1.5,None,2024-09-09 23h47.27.156139 +0530
21,0.5,8.5,54.9625029,,54.9490296,54.9625029,55.4622892,55.4622892,55.4622892,55.7624221,56.3647095,left,23,0,-8.5,0,,0.8963951,691490,1,2024-09-09_23h47.21.566,adaptive_staircase,2024.1.5,None,2024-09-09 23h47.27.156139 +0530
22,0.5,9,56.3784385,,56.3648441,56.3784385,56.8794514,56.8794514,56.8794514,57.1793544,57.6308277,left,24,0,-9,0,,0.7387409,691490,1,2024-09-09_23h47.21.566,adaptive_staircase,2024.1.5,None,2024-09-09 23h47.27.156139 +0530
23,0.5,9.5,57.6458078,,57.6310028,57.6458078,58.1462551,58.1462551,58.1462551,58.4460323,59.6486998,right,25,0,9.5,0,,1.4968058,691490,1,2024-09-09_23h47.21.566,adaptive_staircase,2024.1.5,None,2024-09-09 23h47.27.156139 +0530
24,0.5,10,59.6624166,,59.6488342,59.6624166,60.1626991,60.1626991,60.1626991,60.4793937,61.6633809,left,26,0,-10,0,,1.4899431,691490,1,2024-09-09_23h47.21.566,adaptive_staircase,2024.1.5,None,2024-09-09 23h47.27.156139 +0530
25,0.5,10.5,61.6791867,,61.6635162,61.6791867,62.16305,62.16305,62.1786835,62.4792788,63.9797871,left,27,0,-10.5,0,,1.8089824,691490,1,2024-09-09_23h47.21.566,adaptive_staircase,2024.1.5,None,2024-09-09 23h47.27.156139 +0530
26,0.5,11,63.995682,,63.9799105,63.995682,64.479425,64.479425,64.4962621,64.7789864,65.4506423,right,28,0,11,0,,0.9674021,691490,1,2024-09-09_23h47.21.566,adaptive_staircase,2024.1.5,None,2024-09-09 23h47.27.156139 +0530
27,0.5,11.5,65.4617026,,65.4507671,65.4617026,65.9632326,65.9632326,65.9632326,66.2622817,66.5967172,right,29,0,11.5,0,,0.6251291,691490,1,2024-09-09_23h47.21.566,adaptive_staircase,2024.1.5,None,2024-09-09 23h47.27.156139 +0530
28,0.5,12,66.6121674,,66.5968498,66.6121674,67.0957005,67.0957005,67.1125607,67.4122071,68.0477881,left,30,0,-12,0,,0.935528,691490,1,2024-09-09_23h47.21.566,adaptive_staircase,2024.1.5,None,2024-09-09 23h47.27.156139 +0530
29,0.5,12.5,68.0617973,,68.0479471,68.0617973,68.5627577,68.5627577,68.5627577,68.8626353,70.2145267,right,31,1,12.5,1,,1.6474096,691490,1,2024-09-09_23h47.21.566,adaptive_staircase,2024.1.5,None,2024-09-09 23h47.27.156139 +0530
30,0.5,12.5,70.2287741,,70.2146857,70.2287741,70.7294825,70.7294825,70.7294825,71.028935,72.6151387,right,32,0,12.5,0,,1.8706087,691490,1,2024-09-09_23h47.21.566,adaptive_staircase,2024.1.5,None,2024-09-09 23h47.27.156139 +0530
31,0.5,13,72.6291967,,72.6152741,72.6291967,73.1295541,73.1295541,73.1295541,73.4293977,74.3641725,left,33,0,-13,0,,1.2264467,691490,1,2024-09-09_23h47.21.566,adaptive_staircase,2024.1.5,None,2024-09-09 23h47.27.156139 +0530
32,0.5,13.5,74.3791519,,74.3643418,74.3791519,74.8792923,74.8792923,74.8792923,75.1791307,75.9473463,right,34,1,13.5,1,,1.0563864,691490,1,2024-09-09_23h47.21.566,adaptive_staircase,2024.1.5,None,2024-09-09 23h47.27.156139 +0530
33,0.5,13.5,75.9622433,,75.9474893,75.9622433,76.4627967,76.4627967,76.4627967,76.7627059,77.0644375,left,35,1,-13.5,1,,0.5942843,691490,1,2024-09-09_23h47.21.566,adaptive_staircase,2024.1.5,None,2024-09-09 23h47.27.156139 +0530
34,0.5,13.5,77.0791943,,77.0645675,77.0791943,77.5792343,77.5792343,77.5792343,77.8784691,78.563434,left,36,0,-13.5,0,,0.9733338,691490,1,2024-09-09_23h47.21.566,adaptive_staircase,2024.1.5,None,2024-09-09 23h47.27.156139 +0530
35,0.5,14,78.578985,,78.563607,78.578985,79.0626412,79.0626412,79.0793865,79.3624014,80.1158503,right,37,1,14,1,,1.0486766,691490,1,2024-09-09_23h47.21.566,adaptive_staircase,2024.1.5,None,2024-09-09 23h47.27.156139 +0530
36,0.5,14,80.1280946,,80.1159782,80.1280946,80.6289254,80.6289254,80.6289254,80.929165,81.1473956,left,38,1,-14,1,,0.5027514,691490,1,2024-09-09_23h47.21.566,adaptive_staircase,2024.1.5,None,2024-09-09 23h47.27.156139 +0530
37,0.5,14,81.1620205,,81.1475352,81.1620205,81.6625105,81.6625105,81.6625105,81.9619993,83.0643851,left,39,1,-14,1,,1.3845865,691490,1,2024-09-09_23h47.21.566,adaptive_staircase,2024.1.5,None,2024-09-09 23h47.27.156139 +0530
38,0.5,13.5,83.0790077,,83.0645317,83.0790077,83.5792912,83.5792912,83.5792912,83.8791394,84.7473918,right,40,1,13.5,1,,1.1541492,691490,1,2024-09-09_23h47.21.566,adaptive_staircase,2024.1.5,None,2024-09-09 23h47.27.156139 +0530
39,0.5,13.5,84.7624813,,84.7475658,84.7624813,85.2625461,85.2625461,85.2625461,85.5622855,86.7979759,left,41,0,-13.5,0,,1.5271264,691490,1,2024-09-09_23h47.21.566,adaptive_staircase,2024.1.5,None,2024-09-09 23h47.27.156139 +0530
40,0.5,14,86.8119644,,86.7981107,86.8119644,87.3123503,87.3123503,87.3123503,87.6125029,88.0813222,left,42,0,-14,0,,0.7606154,691490,1,2024-09-09_23h47.21.566,adaptive_staircase,2024.1.5,None,2024-09-09 23h47.27.156139 +0530
41,0.5,14.5,88.0958692,,88.08146,88.0958692,88.5965377,88.5965377,88.5965377,88.8955539,89.6977137,right,43,0,14.5,0,,1.0851397,691490,1,2024-09-09_23h47.21.566,adaptive_staircase,2024.1.5,None,2024-09-09 23h47.27.156139 +0530
42,0.5,15,89.7121406,,89.697858,89.7121406,90.2123343,90.2123343,90.2123343,90.5112331,91.0475425,right,44,0,15,0,,0.8191015,691490,1,2024-09-09_23h47.21.566,adaptive_staircase,2024.1.5,None,2024-09-09 23h47.27.156139 +0530
43,0.5,15.5,91.0629584,,91.0476754,91.0629584,91.562435,91.562435,91.562435,91.8622616,92.814736,left,45,0,-15.5,0,,1.2477457,691490,1,2024-09-09_23h47.21.566,adaptive_staircase,2024.1.5,None,2024-09-09 23h47.27.156139 +0530
44,0.5,16,92.8289901,,92.8148596,92.8289901,93.3295101,93.3295101,93.3295101,93.6324142,94.2804885,right,46,0,16,0,,0.9447705,691490,1,2024-09-09_23h47.21.566,adaptive_staircase,2024.1.5,None,2024-09-09 23h47.27.156139 +0530
45,0.5,16.5,94.2962083,,94.280634,94.2962083,94.796091,94.796091,94.796091,95.0957627,95.5982392,right,47,0,16.5,0,,0.7946513,691490,1,2024-09-09_23h47.21.566,adaptive_staircase,2024.1.5,None,2024-09-09 23h47.27.156139 +0530
46,0.5,17,95.6121383,,95.5983842,95.6121383,96.1128226,96.1128226,96.1128226,96.4127936,96.9130745,left,48,0,-17,0,,0.790352,691490,1,2024-09-09_23h47.21.566,adaptive_staircase,2024.1.5,None,2024-09-09 23h47.27.156139 +0530
47,0.5,17.5,96.9288492,,96.9132087,96.9288492,97.4292243,97.4292243,97.4292243,97.7288306,98.4634516,left,49,0,-17.5,0,,1.0244651,691490,1,2024-09-09_23h47.21.566,adaptive_staircase,2024.1.5,None,2024-09-09 23h47.27.156139 +0530
48,0.5,18,98.4794951,,98.4635853,98.4794951,98.9623676,98.9623676,98.9794659,99.2624294,100.2808435,right,50,1,18,1,,1.3047278,691490,1,2024-09-09_23h47.21.566,adaptive_staircase,2024.1.5,None,2024-09-09 23h47.27.156139 +0530
49,0.5,18,100.2955719,,100.2810117,100.2955719,100.796143,100.796143,100.796143,101.0960193,101.9971552,right,51,0,18,0,,1.1897006,691490,1,2024-09-09_23h47.21.566,adaptive_staircase,2024.1.5,None,2024-09-09 23h47.27.156139 +0530
50,0.5,18.5,102.0122089,,101.9972989,102.0122089,102.5129432,102.5129432,102.5129432,102.8122933,104.3654464,left,52,1,-18.5,1,,1.8458318,691490,1,2024-09-09_23h47.21.566,adaptive_staircase,2024.1.5,None,2024-09-09 23h47.27.156139 +0530
51,0.5,18.5,104.3786773,,104.3656358,104.3786773,104.8795854,104.8795854,104.8795854,105.1792151,106.0661715,right,53,0,18.5,0,,1.1834023,691490,1,2024-09-09_23h47.21.566,adaptive_staircase,2024.1.5,None,2024-09-09 23h47.27.156139 +0530
52,0.5,19,106.0785289,,106.0662883,106.0785289,106.5793592,106.5793592,106.5793592,106.8792326,107.9298661,left,54,0,-19,0,,1.3402003,691490,1,2024-09-09_23h47.21.566,adaptive_staircase,2024.1.5,None,2024-09-09 23h47.27.156139 +0530
53,0.5,19.5,107.9455834,,107.9300078,107.9455834,108.4288117,108.4288117,108.4462533,108.7293874,109.896825,right,55,0,19.5,0,,1.4573083,691490,1,2024-09-09_23h47.21.566,adaptive_staircase,2024.1.5,None,2024-09-09 23h47.27.156139 +0530
54,0.5,20,109.9122289,,109.896968,109.9122289,110.4130352,110.4130352,110.4130352,110.7129154,111.3651419,right,56,0,20,0,,0.9460395,691490,1,2024-09-09_23h47.21.566,adaptive_staircase,2024.1.5,None,2024-09-09 23h47.27.156139 +0530
55,0.5,20,111.3788759,,111.3652862,111.3788759,111.8794555,111.8794555,111.8794555,112.1783638,112.5320668,left,57,0,-20,0,,0.6482699,691490,1,2024-09-09_23h47.21.566,adaptive_staircase,2024.1.5,None,2024-09-09 23h47.27.156139 +0530
56,0.5,20,112.54576,,112.5322239,112.54576,113.04593,113.04593,113.04593,113.3467167,113.5801644,left,58,0,-20,0,,0.5244969,691490,1,2024-09-09_23h47.21.566,adaptive_staircase,2024.1.5,None,2024-09-09 23h47.27.156139 +0530
57,0.5,20,113.5955789,,113.5802891,113.5955789,114.0963719,114.0963719,114.0963719,114.3960265,114.6806165,left,59,0,-20,0,,0.5755456,691490,1,2024-09-09_23h47.21.566,adaptive_staircase,2024.1.5,None,2024-09-09 23h47.27.156139 +0530
58,0.5,20,114.6955089,,114.6807945,114.6955089,115.1957551,115.1957551,115.1957551,115.4959466,115.6639595,left,60,0,-20,0,,0.4590469,691490,1,2024-09-09_23h47.21.566,adaptive_staircase,2024.1.5,None,2024-09-09 23h47.27.156139 +0530
59,0.5,20,115.6794359,,115.6640941,115.6794359,116.179093,116.179093,116.179093,116.4791531,116.6143612,left,61,0,-20,0,,0.4273608,691490,1,2024-09-09_23h47.21.566,adaptive_staircase,2024.1.5,None,2024-09-09 23h47.27.156139 +0530
60,0.5,20,116.6290305,,116.6144934,116.6290305,117.1292548,117.1292548,117.1292548,117.4284157,117.9482876,left,62,0,-20,0,,0.8146597,691490,1,2024-09-09_23h47.21.566,adaptive_staircase,2024.1.5,None,2024-09-09 23h47.27.156139 +0530
61,0.5,20,117.9620527,,117.948429,117.9620527,118.4623292,118.4623292,118.4623292,118.7626079,119.2641775,left,63,0,-20,0,,0.7969076,691490,1,2024-09-09_23h47.21.566,adaptive_staircase,2024.1.5,None,2024-09-09 23h47.27.156139 +0530
62,0.5,20,119.278811,,119.2643594,119.278811,119.7788943,119.7788943,119.7788943,120.0786335,120.56457,right,64,0,20,0,,0.7799827,691490,1,2024-09-09_23h47.21.566,adaptive_staircase,2024.1.5,None,2024-09-09 23h47.27.156139 +0530
63,0.5,20,120.5783382,,120.5647144,120.5783382,121.0795347,121.0795347,121.0795347,121.3793051,123.0320736,left,65,0,-20,0,,1.9458708,691490,1,2024-09-09_23h47.21.566,adaptive_staircase,2024.1.5,None,2024-09-09 23h47.27.156139 +0530
64,0.5,20,123.0457307,,123.0322276,123.0457307,123.5455169,123.5455169,123.5455169,123.8459224,124.3988007,right,66,1,20,1,,0.8450964,691490,1,2024-09-09_23h47.21.566,adaptive_staircase,2024.1.5,None,2024-09-09 23h47.27.156139 +0530
65,0.5,20,124.412787,,124.3989606,124.412787,124.91237,124.91237,124.91237,125.2121054,126.1477829,left,67,1,-20,1,,1.2182786,691490,1,2024-09-09_23h47.21.566,adaptive_staircase,2024.1.5,None,2024-09-09 23h47.27.156139 +0530
66,0.5,20,126.162098,,126.147914,126.162098,126.6626109,126.6626109,126.6626109,126.9622801,128.3646577,left,68,1,-20,1,,1.6941758,691490,1,2024-09-09_23h47.21.566,adaptive_staircase,2024.1.5,None,2024-09-09 23h47.27.156139 +0530
67,0.5,19.5,128.3790133,,128.3647919,128.3790133,128.8793837,128.8793837,128.8793837,129.1789103,129.9984559,right,69,1,19.5,1,,1.1125224,691490,1,2024-09-09_23h47.21.566,adaptive_staircase,2024.1.5,None,2024-09-09 23h47.27.156139 +0530
68,0.5,19.5,130.0120305,,129.9986121,130.0120305,130.5126028,130.5126028,130.5126028,130.8124006,131.4313694,right,70,1,19.5,1,,0.9125394,691490,1,2024-09-09_23h47.21.566,adaptive_staircase,2024.1.5,None,2024-09-09 23h47.27.156139 +0530
69,0.5,19.5,131.4456024,,131.4315053,131.4456024,131.9463345,131.9463345,131.9463345,132.2457543,132.9650465,right,71,1,19.5,1,,1.0130822,691490,1,2024-09-09_23h47.21.566,adaptive_staircase,2024.1.5,None,2024-09-09 23h47.27.156139 +0530
70,0.5,19,132.978753,,132.9651872,132.978753,133.4792196,133.4792196,133.4792196,133.7790992,134.0310632,right,72,0,19,0,,0.5360818,691490,1,2024-09-09_23h47.21.566,adaptive_staircase,2024.1.5,None,2024-09-09 23h47.27.156139 +0530
71,0.5,19.5,134.046046,,134.0311955,134.046046,134.5463772,134.5463772,134.5463772,134.8462427,135.4484467,left,73,0,-19.5,0,,0.8965809,691490,1,2024-09-09_23h47.21.566,adaptive_staircase,2024.1.5,None,2024-09-09 23h47.27.156139 +0530
72,0.5,20,135.4620765,,135.4486065,135.4620765,135.9626634,135.9626634,135.9626634,136.2623966,136.547241,right,74,0,20,0,,0.5720494,691490,1,2024-09-09_23h47.21.566,adaptive_staircase,2024.1.5,None,2024-09-09 23h47.27.156139 +0530
73,0.5,20,136.5624006,,136.5473914,136.5624006,137.0622484,137.0622484,137.0622484,137.3628452,137.7478394,right,75,1,20,1,,0.6799944,691490,1,2024-09-09_23h47.21.566,adaptive_staircase,2024.1.5,None,2024-09-09 23h47.27.156139 +0530
74,0.5,20,137.7620154,,137.747975,137.7620154,138.262977,138.262977,138.262977,138.561642,139.466507,left,76,1,-20,1,,1.1997396,691490,1,2024-09-09_23h47.21.566,adaptive_staircase,2024.1.5,None,2024-09-09 23h47.27.156139 +0530
75,0.5,20,139.4788568,,139.466627,139.4788568,139.9789195,139.9789195,139.9789195,140.279162,141.2482821,right,77,0,20,0,,1.2642257,691490,1,2024-09-09_23h47.21.566,adaptive_staircase,2024.1.5,None,2024-09-09 23h47.27.156139 +0530
76,0.5,20,141.2627054,,141.2484215,141.2627054,141.7619893,141.7619893,141.7619893,142.0625917,142.5641082,left,78,1,-20,1,,0.7888228,691490,1,2024-09-09_23h47.21.566,adaptive_staircase,2024.1.5,None,2024-09-09 23h47.27.156139 +0530
77,0.5,20,142.5789321,,142.5642388,142.5789321,143.0796232,143.0796232,143.0796232,143.3792762,143.5146178,left,79,0,-20,0,,0.4272482,691490,1,2024-09-09_23h47.21.566,adaptive_staircase,2024.1.5,None,2024-09-09 23h47.27.156139 +0530
78,0.5,20,143.5297211,,143.514817,143.5297211,144.0292503,144.0292503,144.0292503,144.3287455,145.8478897,left,80,1,-20,1,,1.8057422,691490,1,2024-09-09_23h47.21.566,adaptive_staircase,2024.1.5,None,2024-09-09 23h47.27.156139 +0530
79,0.5,20,145.8623555,,145.848055,145.8623555,146.362448,146.362448,146.362448,146.662609,147.6984843,left,81,0,-20,0,,1.3304746,691490,1,2024-09-09_23h47.21.566,adaptive_staircase,2024.1.5,None,2024-09-09 23h47.27.156139 +0530
80,0.5,20,147.7126311,,147.6986155,147.7126311,148.2130614,148.2130614,148.2130614,148.5121805,149.0159395,left,82,0,-20,0,,0.7994887,691490,1,2024-09-09_23h47.21.566,adaptive_staircase,2024.1.5,None,2024-09-09 23h47.27.156139 +0530
81,0.5,20,149.0285472,,149.016097,149.0285472,149.5293748,149.5293748,149.5293748,149.8286577,150.6293434,right,83,1,20,1,,1.0801674,691490,1,2024-09-09_23h47.21.566,adaptive_staircase,2024.1.5,None,2024-09-09 23h47.27.156139 +0530
82,0.5,20,150.643785,,150.6294743,150.643785,151.1290018,151.1290018,151.1460191,151.4287052,151.9812543,left,84,1,-20,1,,0.837887,691490,1,2024-09-09_23h47.21.566,adaptive_staircase,2024.1.5,None,2024-09-09 23h47.27.156139 +0530
83,0.5,20,151.9955717,,151.981392,151.9955717,152.4963334,152.4963334,152.4963334,152.8123097,153.8642779,right,85,1,20,1,,1.3565963,691490,1,2024-09-09_23h47.21.566,adaptive_staircase,2024.1.5,None,2024-09-09 23h47.27.156139 +0530
84,0.5,19.5,153.8790833,,153.8644566,153.8790833,154.3790725,154.3790725,154.3790725,154.6788672,154.9815403,left,86,1,-19.5,1,,0.5947071,691490,1,2024-09-09_23h47.21.566,adaptive_staircase,2024.1.5,None,2024-09-09 23h47.27.156139 +0530
85,0.5,19.5,154.9956745,,154.9816947,154.9956745,155.4965556,155.4965556,155.4965556,155.8112965,156.4507875,left,87,1,-19.5,1,,0.9505272,691490,1,2024-09-09_23h47.21.566,adaptive_staircase,2024.1.5,None,2024-09-09 23h47.27.156139 +0530
86,0.5,19.5,156.4620598,,156.4509093,156.4620598,156.9628252,156.9628252,156.9628252,157.2625427,157.9314669,right,88,0,19.5,0,,0.951933,691490,1,2024-09-09_23h47.21.566,adaptive_staircase,2024.1.5,None,2024-09-09 23h47.27.156139 +0530
87,0.5,20,157.9457359,,157.931602,157.9457359,158.4456765,158.4456765,158.4456765,158.7460396,160.4991326,left,89,0,-20,0,,2.0499563,691490,1,2024-09-09_23h47.21.566,adaptive_staircase,2024.1.5,None,2024-09-09 23h47.27.156139 +0530
88,0.5,20,160.5119766,,160.4992723,160.5119766,161.012724,161.012724,161.012724,161.312492,162.1644888,right,90,0,20,0,,1.1468015,691490,1,2024-09-09_23h47.21.566,adaptive_staircase,2024.1.5,None,2024-09-09 23h47.27.156139 +0530
89,0.5,20,162.1788153,,162.1646668,162.1788153,162.6793661,162.6793661,162.6793661,162.9793056,164.1968884,left,91,1,-20,1,,1.5065486,691490,1,2024-09-09_23h47.21.566,adaptive_staircase,2024.1.5,None,2024-09-09 23h47.27.156139 +0530
90,0.5,20,164.2123823,,164.1970431,164.2123823,164.7128076,164.7128076,164.7128076,165.0125941,165.4659738,right,92,0,20,0,,0.7473225,691490,1,2024-09-09_23h47.21.566,adaptive_staircase,2024.1.5,None,2024-09-09 23h47.27.156139 +0530
91,0.5,20,165.4791491,,165.4661071,165.4791491,165.9791138,165.9791138,165.9791138,166.2790768,166.6316245,right,93,0,20,0,,0.647056,691490,1,2024-09-09_23h47.21.566,adaptive_staircase,2024.1.5,None,2024-09-09 23h47.27.156139 +0530
92,0.5,20,166.6456048,,166.6317678,166.6456048,167.1455901,167.1455901,167.1455901,167.4459247,168.0306148,left,94,0,-20,0,,0.8771011,691490,1,2024-09-09_23h47.21.566,adaptive_staircase,2024.1.5,None,2024-09-09 23h47.27.156139 +0530
93,0.5,20,168.0458925,,168.03075,168.0458925,168.5464196,168.5464196,168.5464196,168.8457926,169.3643984,right,95,0,20,0,,0.8091459,691490,1,2024-09-09_23h47.21.566,adaptive_staircase,2024.1.5,None,2024-09-09 23h47.27.156139 +0530
94,0.5,20,169.3793755,,169.3645341,169.3793755,169.8790735,169.8790735,169.8790735,170.1794814,172.163953,left,96,1,-20,1,,2.2718395,691490,1,2024-09-09_23h47.21.566,adaptive_staircase,2024.1.5,None,2024-09-09 23h47.27.156139 +0530
95,0.5,20,172.1786413,,172.1640835,172.1786413,172.6781807,172.6781807,172.6781807,172.9794688,173.9643585,right,97,0,20,0,,1.2770424,691490,1,2024-09-09_23h47.21.566,adaptive_staircase,2024.1.5,None,2024-09-09 23h47.27.156139 +0530
96,0.5,20,173.979391,,173.9645168,173.979391,174.479158,174.479158,174.479158,174.7793767,176.5460583,left,98,0,-20,0,,2.0627623,691490,1,2024-09-09_23h47.21.566,adaptive_staircase,2024.1.5,None,2024-09-09 23h47.27.156139 +0530
97,0.5,20,176.5633587,,176.5461569,176.5633587,177.0448092,177.0448092,177.0794827,177.3454909,177.8807977,right,99,0,20,0,,0.8204123,691490,1,2024-09-09_23h47.21.566,adaptive_staircase,2024.1.5,None,2024-09-09 23h47.27.156139 +0530
98,0.5,20,177.8956192,,177.8809744,177.8956192,178.3789299,178.3789299,178.3960927,178.6797664,180.1163716,right,100,0,20,0,,1.7338153,691490,1,2024-09-09_23h47.21.566,adaptive_staircase,2024.1.5,None,2024-09-09 23h47.27.156139 +0530
99,0.5,20,180.1290121,,180.1164962,180.1290121,180.629617,180.629617,180.629617,180.9292585,182.3313796,left,,0,-20,0,,1.6849432,691490,1,2024-09-09_23h47.21.566,adaptive_staircase,2024.1.5,None,2024-09-09 23h47.27.156139 +0530
,,,,,,,,,,,,,,,,,,,,,,,,,
,,,,,,,,,,,,,,,,,,,,,,,,,
,,,,,,,,,,,,,,,,,,,,,,,,,
,,,,,,,,,,,,,,,,,,,,,,,,,
,,,,,,,,,,,,,,,,,,,,,,,,,
,,,,,,,,,,,,,,,,accuracy rate=,0.393939394,,,,,,,,
,,,,,,,,,,,,,,,,,,,,,,,,,
,,,,,,,,,,,,,,,,,,,,,,,,,
,,,,,,,,,,,,,,,,,,,,,,,,,
,,,,,,,,,,,,,,,,,,,,,,,,,
,,,,,,,,,,,,,,,,,,,,,,,,,
,,,,,,,,,,,,,,,,,,,,,,,,,
,,,,,,,,,,,,,,,,,,,,,,,,,
,,,,,,,,,,,,,,,,,,,,,,,,,
,,,,,,,,,,,,,,,,,,,,,,,,,
,,,,,,,,,,,,,,,,,,,,,,,,,
,,,,,,,,REVERSAL AT KEY RESPONSES,,,,,,,,,,,,,,,,,
,,,,,,,,12.5,,,,,,,,,,,,,,,,,
,,,,,,,,13.5,,,,,,,,,,,,,,,,,
,,,,,,,,18,,,,,,,,,,,,,,,,,
,,,,,,,,19,,,,,,,,,,,,,,,,,
,,,,,,,,19.5,STDEV,3.259601203,,,,,,,,,,,,,,,
,,,,,,,MEAN,16.5,,1.457737974,STANDARD ERROR=,,,,,,,,,,,,,,
