reward_today,future_reward,delay,trials.thisRepN,trials.thisTrialN,trials.thisN,trials.thisIndex,thisRow.t,notes,trial.started,fixation.started,text.started,key_resp.started,fixation.stopped,trial.stopped,key_resp.keys,key_resp.rt,key_resp.duration,participant,session,date,expName,psychopyVersion,frameRate,expStart,
11,30,7,0,0,0,0,0.11796109995339066,,0.04835939995246008,0.11796109995339066,1.0037117999745533,1.0037117999745533,1.1201769999461249,2.811105199973099,l,1.7903900000383146,None,4,001,2024-11-21_18h27.37.696,delay_discounting,2024.1.5,None,2024-11-21 18h27.48.636432 +0530,
78,80,162,0,1,1,6,2.8253263999940827,,2.812670299957972,2.8253263999940827,3.82062189996941,3.82062189996941,3.8375467999721877,5.406667199975345,t,1.5755235000397079,None,4,001,2024-11-21_18h27.37.696,delay_discounting,2024.1.5,None,2024-11-21 18h27.48.636432 +0530,
15,35,14,0,2,2,1,5.428013999946415,,5.408521399949677,5.428013999946415,6.420413199986797,6.420413199986797,6.43704379996052,7.4743678999948315,l,1.049798300024122,None,4,001,2024-11-21_18h27.37.696,delay_discounting,2024.1.5,None,2024-11-21 18h27.48.636432 +0530,
67,75,119,0,3,3,5,7.488345599966124,,7.475773399986792,7.488345599966124,8.487021499953698,8.487021499953698,8.50367379997624,10.039431799959857,t,1.5390984999830835,None,4,001,2024-11-21_18h27.37.696,delay_discounting,2024.1.5,None,2024-11-21 18h27.48.636432 +0530,
27,50,21,0,4,4,2,10.05342529999325,,10.040822699957062,10.05342529999325,11.054087099968456,11.054087099968456,11.054087099968456,12.32443689997308,l,1.2657240999978967,None,4,001,2024-11-21_18h27.37.696,delay_discounting,2024.1.5,None,2024-11-21 18h27.48.636432 +0530,
49,60,89,0,5,5,4,12.33693339995807,,12.32591669994872,12.33693339995807,13.337486399977934,13.337486399977934,13.337486399977934,15.089372099959292,t,1.7423587999655865,None,4,001,2024-11-21_18h27.37.696,delay_discounting,2024.1.5,None,2024-11-21 18h27.48.636432 +0530,
40,55,62,0,6,6,3,15.103483699960634,,15.090884799952619,15.103483699960634,16.104069499997422,16.104069499997422,16.104069499997422,17.35588149999967,t,1.2430080999620259,None,4,001,2024-11-21_18h27.37.696,delay_discounting,2024.1.5,None,2024-11-21 18h27.48.636432 +0530,
11,30,7,1,0,7,0,17.370058299973607,,17.35724979999941,17.370058299973607,18.370589300000574,18.370589300000574,18.370589300000574,19.738464599999133,l,1.3515173999476247,None,4,001,2024-11-21_18h27.37.696,delay_discounting,2024.1.5,None,2024-11-21 18h27.48.636432 +0530,
49,60,89,1,1,8,4,19.753581599972676,,19.739533499989193,19.753581599972676,20.753909299965017,20.753909299965017,20.753909299965017,21.771929099981207,t,1.0027944999746978,None,4,001,2024-11-21_18h27.37.696,delay_discounting,2024.1.5,None,2024-11-21 18h27.48.636432 +0530,
40,55,62,1,2,9,3,21.78683739999542,,21.77292399998987,21.78683739999542,22.78731859999243,22.78731859999243,22.78731859999243,25.105123699991964,t,2.304004800040275,None,4,001,2024-11-21_18h27.37.696,delay_discounting,2024.1.5,None,2024-11-21 18h27.48.636432 +0530,
67,75,119,1,3,10,5,25.120133699965663,,25.106051299953833,25.120133699965663,26.120462399965618,26.120462399965618,26.120462399965618,27.324585399997886,t,1.1998268999741413,None,4,001,2024-11-21_18h27.37.696,delay_discounting,2024.1.5,None,2024-11-21 18h27.48.636432 +0530,
15,35,14,1,4,11,1,27.336951699981,,27.325902199954726,27.336951699981,28.337338499957696,28.337338499957696,28.337338499957696,30.073366999975406,l,1.7313601999776438,None,4,001,2024-11-21_18h27.37.696,delay_discounting,2024.1.5,None,2024-11-21 18h27.48.636432 +0530,
78,80,162,1,5,12,6,30.08899629994994,,30.074970999965444,30.08899629994994,31.087628799956292,31.087628799956292,31.104245599999558,32.12199289997807,t,1.0257309000007808,None,4,001,2024-11-21_18h27.37.696,delay_discounting,2024.1.5,None,2024-11-21 18h27.48.636432 +0530,
27,50,21,1,6,13,2,32.13679099996807,,32.12302549998276,32.13679099996807,33.13721279997844,33.13721279997844,33.13721279997844,34.05649419996189,l,0.9132929999614134,None,4,001,2024-11-21_18h27.37.696,delay_discounting,2024.1.5,None,2024-11-21 18h27.48.636432 +0530,
49,60,89,2,0,14,4,34.07005639997078,,34.058008099964354,34.07005639997078,35.07061169994995,35.07061169994995,35.07061169994995,37.32168799999636,t,2.2382959999958985,None,4,001,2024-11-21_18h27.37.696,delay_discounting,2024.1.5,None,2024-11-21 18h27.48.636432 +0530,
78,80,162,2,1,15,6,37.336860899988096,,37.32259619998513,37.336860899988096,38.33723889995599,38.33723889995599,38.33723889995599,39.70617569994647,t,1.363431500038132,None,4,001,2024-11-21_18h27.37.696,delay_discounting,2024.1.5,None,2024-11-21 18h27.48.636432 +0530,
27,50,21,2,2,16,2,39.720177399984095,,39.70786969998153,39.720177399984095,40.72048709995579,40.72048709995579,40.72048709995579,41.97304219997022,l,1.2444561999873258,None,4,001,2024-11-21_18h27.37.696,delay_discounting,2024.1.5,None,2024-11-21 18h27.48.636432 +0530,
40,55,62,2,3,17,3,41.986759199993685,,41.973929699976,41.986759199993685,42.98729449999519,42.98729449999519,42.98729449999519,44.92296299996087,l,1.9289986999938264,None,4,001,2024-11-21_18h27.37.696,delay_discounting,2024.1.5,None,2024-11-21 18h27.48.636432 +0530,
67,75,119,2,4,18,5,44.936823099968024,,44.92397979996167,44.936823099968024,45.93720049998956,45.93720049998956,45.93720049998956,47.172109099978115,t,1.2216975999763235,None,4,001,2024-11-21_18h27.37.696,delay_discounting,2024.1.5,None,2024-11-21 18h27.48.636432 +0530,
11,30,7,2,5,19,0,47.186998199962545,,47.17305619997205,47.186998199962545,48.18712239997694,48.18712239997694,48.18712239997694,50.139400299987756,l,1.9471367999794893,None,4,001,2024-11-21_18h27.37.696,delay_discounting,2024.1.5,None,2024-11-21 18h27.48.636432 +0530,
15,35,14,2,6,20,1,50.153654199966695,,50.14039179997053,50.153654199966695,51.153879199991934,51.153879199991934,51.153879199991934,52.35599489999004,l,1.196032399951946,None,4,001,2024-11-21_18h27.37.696,delay_discounting,2024.1.5,None,2024-11-21 18h27.48.636432 +0530,
40,55,62,3,0,21,3,52.37018879997777,,52.357425299996976,52.37018879997777,53.3705454999581,53.3705454999581,53.3705454999581,54.48903679999057,t,1.1034982000128366,None,4,001,2024-11-21_18h27.37.696,delay_discounting,2024.1.5,None,2024-11-21 18h27.48.636432 +0530,
49,60,89,3,1,22,4,54.50371609994909,,54.490018799959216,54.50371609994909,55.50386099994648,55.50386099994648,55.50386099994648,57.005491099960636,t,1.487439499993343,None,4,001,2024-11-21_18h27.37.696,delay_discounting,2024.1.5,None,2024-11-21 18h27.48.636432 +0530,
78,80,162,3,2,23,6,57.020291599968914,,57.00634829996852,57.020291599968914,58.02060299995355,58.02060299995355,58.02060299995355,60.25532729999395,t,2.2182001000037417,None,4,001,2024-11-21_18h27.37.696,delay_discounting,2024.1.5,None,2024-11-21 18h27.48.636432 +0530,
11,30,7,3,3,24,0,60.27008339995518,,60.25615749997087,60.27008339995518,61.270411199948285,61.270411199948285,61.270411199948285,64.35708469996462,l,3.080758500029333,None,4,001,2024-11-21_18h27.37.696,delay_discounting,2024.1.5,None,2024-11-21 18h27.48.636432 +0530,
27,50,21,3,4,25,2,64.3702952999738,,64.35839329997543,64.3702952999738,65.37062789994525,65.37062789994525,65.37062789994525,67.85789369995473,l,2.4835834999685176,None,4,001,2024-11-21_18h27.37.696,delay_discounting,2024.1.5,None,2024-11-21 18h27.48.636432 +0530,
67,75,119,3,5,26,5,67.87013090000255,,67.859422599955,67.87013090000255,68.87067489995388,68.87067489995388,68.87067489995388,70.32254909997573,t,1.4399862000136636,None,4,001,2024-11-21_18h27.37.696,delay_discounting,2024.1.5,None,2024-11-21 18h27.48.636432 +0530,
15,35,14,3,6,27,1,70.33681919996161,,70.32408179994673,70.33681919996161,71.33736499998486,71.33736499998486,71.33736499998486,73.0920014999574,l,1.749635899963323,None,4,001,2024-11-21_18h27.37.696,delay_discounting,2024.1.5,None,2024-11-21 18h27.48.636432 +0530,
40,55,62,4,0,28,3,73.10371319996193,,73.0932027999661,73.10371319996193,74.1039952999563,74.1039952999563,74.1039952999563,77.00554509996437,l,2.8931791000068188,None,4,001,2024-11-21_18h27.37.696,delay_discounting,2024.1.5,None,2024-11-21 18h27.48.636432 +0530,
67,75,119,4,1,29,5,77.02012489998015,,77.00666499999352,77.02012489998015,78.02058809995651,78.02058809995651,78.02058809995651,79.4556441999739,t,1.4247354000108317,None,4,001,2024-11-21_18h27.37.696,delay_discounting,2024.1.5,None,2024-11-21 18h27.48.636432 +0530,
15,35,14,4,2,30,1,79.47011739999289,,79.4565856999834,79.47011739999289,80.4704417999601,80.4704417999601,80.4704417999601,81.89218349999283,l,1.4165981999831274,None,4,001,2024-11-21_18h27.37.696,delay_discounting,2024.1.5,None,2024-11-21 18h27.48.636432 +0530,
11,30,7,4,3,31,0,81.90434429998277,,81.89306749997195,81.90434429998277,82.9037043999997,82.9037043999997,82.9037043999997,84.43869249999989,l,1.5184423999744467,None,4,001,2024-11-21_18h27.37.696,delay_discounting,2024.1.5,None,2024-11-21 18h27.48.636432 +0530,
49,60,89,4,4,32,4,84.45384749997174,,84.44009940000251,84.45384749997174,85.45410209998954,85.45410209998954,85.45410209998954,86.6890639999765,t,1.2275464999838732,None,4,001,2024-11-21_18h27.37.696,delay_discounting,2024.1.5,None,2024-11-21 18h27.48.636432 +0530,
27,50,21,4,5,33,2,86.70358049997594,,86.68994709994877,86.70358049997594,87.7038982999511,87.7038982999511,87.7038982999511,88.73932759999298,l,1.0279512000270188,None,4,001,2024-11-21_18h27.37.696,delay_discounting,2024.1.5,None,2024-11-21 18h27.48.636432 +0530,
78,80,162,4,6,34,6,88.75347739999415,,88.74087439995492,88.75347739999415,89.75381869997364,89.75381869997364,89.75381869997364,91.48912569996901,t,1.7244001000071876,None,4,001,2024-11-21_18h27.37.696,delay_discounting,2024.1.5,None,2024-11-21 18h27.48.636432 +0530,
78,80,162,5,0,35,6,91.5035002999939,,91.48999949998688,91.5035002999939,92.50405859999591,92.50405859999591,92.50405859999591,94.72226159996353,t,2.2071581999771297,None,4,001,2024-11-21_18h27.37.696,delay_discounting,2024.1.5,None,2024-11-21 18h27.48.636432 +0530,
15,35,14,5,1,36,1,94.73687089997111,,94.72312589996727,94.73687089997111,95.73748439998599,95.73748439998599,95.73748439998599,97.40510309999809,l,1.6511127999983728,None,4,001,2024-11-21_18h27.37.696,delay_discounting,2024.1.5,None,2024-11-21 18h27.48.636432 +0530,
40,55,62,5,2,37,3,97.42020239995327,,97.40606729994761,97.42020239995327,98.42068469995866,98.42068469995866,98.42068469995866,101.78891239996301,t,3.354062700003851,None,4,001,2024-11-21_18h27.37.696,delay_discounting,2024.1.5,None,2024-11-21 18h27.48.636432 +0530,
49,60,89,5,3,38,4,101.80345969996415,,101.7897894999478,101.80345969996415,102.80398699996294,102.80398699996294,102.80398699996294,105.05527309997706,t,2.243056599982083,None,4,001,2024-11-21_18h27.37.696,delay_discounting,2024.1.5,None,2024-11-21 18h27.48.636432 +0530,
27,50,21,5,4,39,2,105.07025119999889,,105.05639029998565,105.07025119999889,106.07046399998944,106.07046399998944,106.07046399998944,107.45591139997123,l,1.3824100999627262,None,4,001,2024-11-21_18h27.37.696,delay_discounting,2024.1.5,None,2024-11-21 18h27.48.636432 +0530,
11,30,7,5,5,40,0,107.47017629997572,,107.45718809997197,107.47017629997572,108.47059819998685,108.47059819998685,108.47059819998685,111.95591809996404,l,3.4773654000018723,None,4,001,2024-11-21_18h27.37.696,delay_discounting,2024.1.5,None,2024-11-21 18h27.48.636432 +0530,
67,75,119,5,6,41,5,111.97020419995533,,111.95704769995064,111.97020419995533,112.97062199999345,112.97062199999345,112.97062199999345,115.03931089997059,t,2.0562497000209987,None,4,001,2024-11-21_18h27.37.696,delay_discounting,2024.1.5,None,2024-11-21 18h27.48.636432 +0530,
49,60,89,6,0,42,4,115.05352229997516,,115.04072859999724,115.05352229997516,116.05401089997031,116.05401089997031,116.05401089997031,121.62213829997927,t,5.559288100048434,None,4,001,2024-11-21_18h27.37.696,delay_discounting,2024.1.5,None,2024-11-21 18h27.48.636432 +0530,
27,50,21,6,1,43,2,121.63679759996012,,121.62316829996416,121.63679759996012,122.6372938999557,122.6372938999557,122.6372938999557,126.12311759998556,l,3.4770754000055604,None,4,001,2024-11-21_18h27.37.696,delay_discounting,2024.1.5,None,2024-11-21 18h27.48.636432 +0530,
15,35,14,6,2,44,1,126.13685670000268,,126.12402279995149,126.13685670000268,127.137250699976,127.137250699976,127.137250699976,129.82307220000075,l,2.678007099952083,None,4,001,2024-11-21_18h27.37.696,delay_discounting,2024.1.5,None,2024-11-21 18h27.48.636432 +0530,
67,75,119,6,3,45,5,129.8368936999468,,129.82400289998623,129.8368936999468,130.83738679997623,130.83738679997623,130.83738679997623,132.95586709998315,t,2.106835199985653,None,4,001,2024-11-21_18h27.37.696,delay_discounting,2024.1.5,None,2024-11-21 18h27.48.636432 +0530,
40,55,62,6,4,46,3,132.97012709995033,,132.9574107999797,132.97012709995033,133.97073149995413,133.97073149995413,133.97073149995413,135.42234699998517,l,1.4359069000347517,None,4,001,2024-11-21_18h27.37.696,delay_discounting,2024.1.5,None,2024-11-21 18h27.48.636432 +0530,
11,30,7,6,5,47,0,135.43688100000145,,135.42323549999855,135.43688100000145,136.4373465999961,136.4373465999961,136.4373465999961,137.28906889999053,l,0.8367326000006869,None,4,001,2024-11-21_18h27.37.696,delay_discounting,2024.1.5,None,2024-11-21 18h27.48.636432 +0530,
78,80,162,6,6,48,6,137.3035428999574,,137.29036859999178,137.3035428999574,138.30386919999728,138.30386919999728,138.30386919999728,140.22232309996616,l,1.902852100029122,None,4,001,2024-11-21_18h27.37.696,delay_discounting,2024.1.5,None,2024-11-21 18h27.48.636432 +0530,
11,30,7,7,0,49,0,140.236782699998,,140.22313419997226,140.236782699998,141.23718929995084,141.23718929995084,141.23718929995084,142.3399042999954,l,1.097528800019063,None,4,001,2024-11-21_18h27.37.696,delay_discounting,2024.1.5,None,2024-11-21 18h27.48.636432 +0530,
78,80,162,7,1,50,6,142.35356979997596,,142.34078379999846,142.35356979997596,143.35398689995054,143.35398689995054,143.35398689995054,145.05566620000172,l,1.69035009999061,None,4,001,2024-11-21_18h27.37.696,delay_discounting,2024.1.5,None,2024-11-21 18h27.48.636432 +0530,
15,35,14,7,2,51,1,145.07004530000268,,145.05666099995142,145.07004530000268,146.0706508999574,146.0706508999574,146.0706508999574,147.1391662999522,l,1.062932999979239,None,4,001,2024-11-21_18h27.37.696,delay_discounting,2024.1.5,None,2024-11-21 18h27.48.636432 +0530,
40,55,62,7,3,52,3,147.15349469997454,,147.14042569999583,147.15349469997454,148.15416659996845,148.15416659996845,148.15416659996845,149.02503129997058,t,0.8668359000002965,None,4,001,2024-11-21_18h27.37.696,delay_discounting,2024.1.5,None,2024-11-21 18h27.48.636432 +0530,
67,75,119,7,4,53,5,149.03768670000136,,149.02634879999096,149.03768670000136,150.0371789999772,150.0371789999772,150.0371789999772,150.85566429997561,t,0.8154649999924004,None,4,001,2024-11-21_18h27.37.696,delay_discounting,2024.1.5,None,2024-11-21 18h27.48.636432 +0530,
27,50,21,7,5,54,2,150.87015350000001,,150.8568999999552,150.87015350000001,151.87054229999194,151.87054229999194,151.87054229999194,152.7389140999876,l,0.8523457000264898,None,4,001,2024-11-21_18h27.37.696,delay_discounting,2024.1.5,None,2024-11-21 18h27.48.636432 +0530,
49,60,89,7,6,55,4,152.75351849995786,,152.7399054999696,152.75351849995786,153.75401219999185,153.75401219999185,153.75401219999185,155.97349819994997,l,2.215020600007847,None,4,001,2024-11-21_18h27.37.696,delay_discounting,2024.1.5,None,2024-11-21 18h27.48.636432 +0530,
27,50,21,8,0,56,2,155.98696089995792,,155.9748628999805,155.98696089995792,156.98742239997955,156.98742239997955,156.98742239997955,157.85827169998083,l,0.8666089000180364,None,4,001,2024-11-21_18h27.37.696,delay_discounting,2024.1.5,None,2024-11-21 18h27.48.636432 +0530,
67,75,119,8,1,57,5,157.87028449994978,,157.85950399999274,157.87028449994978,158.87072409997927,158.87072409997927,158.87072409997927,159.89252009999473,t,1.0176208000048064,None,4,001,2024-11-21_18h27.37.696,delay_discounting,2024.1.5,None,2024-11-21 18h27.48.636432 +0530,
15,35,14,8,2,58,1,159.906053899962,,159.89397439995082,159.906053899962,160.9041850999929,160.9041850999929,160.92068659997312,161.65557139995508,l,0.7443466000258923,None,4,001,2024-11-21_18h27.37.696,delay_discounting,2024.1.5,None,2024-11-21 18h27.48.636432 +0530,
78,80,162,8,3,59,6,161.67019779997645,,161.65676319994964,161.67019779997645,162.67075179994572,162.67075179994572,162.67075179994572,163.68923169997288,t,1.005728900025133,None,4,001,2024-11-21_18h27.37.696,delay_discounting,2024.1.5,None,2024-11-21 18h27.48.636432 +0530,
40,55,62,8,4,60,3,163.7038949999842,,163.69022449996555,163.7038949999842,164.70384129998274,164.70384129998274,164.70384129998274,165.57425839995267,l,0.8653974999906495,None,4,001,2024-11-21_18h27.37.696,delay_discounting,2024.1.5,None,2024-11-21 18h27.48.636432 +0530,
11,30,7,8,5,61,0,165.58698449999793,,165.57545720000053,165.58698449999793,166.5873614999582,166.5873614999582,166.5873614999582,167.70619729999453,l,1.107734499964863,None,4,001,2024-11-21_18h27.37.696,delay_discounting,2024.1.5,None,2024-11-21 18h27.48.636432 +0530,
49,60,89,8,6,62,4,167.7199964999454,,167.70769009995274,167.7199964999454,168.72071129997494,168.72071129997494,168.72071129997494,170.2241979999817,t,1.4970496000023559,None,4,001,2024-11-21_18h27.37.696,delay_discounting,2024.1.5,None,2024-11-21 18h27.48.636432 +0530,
40,55,62,9,0,63,3,170.23692619998474,,170.22509709995938,170.23692619998474,171.23748109996086,171.23748109996086,171.23748109996086,172.85581819998333,l,1.6094294000067748,None,4,001,2024-11-21_18h27.37.696,delay_discounting,2024.1.5,None,2024-11-21 18h27.48.636432 +0530,
27,50,21,9,1,64,2,172.87013689999003,,172.85732629999984,172.87013689999003,173.87064059998374,173.87064059998374,173.87064059998374,175.57359059998998,l,1.6971511999727227,None,4,001,2024-11-21_18h27.37.696,delay_discounting,2024.1.5,None,2024-11-21 18h27.48.636432 +0530,
67,75,119,9,2,65,5,175.58723049995024,,175.57461749995127,175.58723049995024,176.58727499999804,176.58727499999804,176.58727499999804,178.19133829994826,t,1.59967389999656,None,4,001,2024-11-21_18h27.37.696,delay_discounting,2024.1.5,None,2024-11-21 18h27.48.636432 +0530,
11,30,7,9,3,66,0,178.20463890000246,,178.1928496999899,178.20463890000246,179.20400759996846,179.20400759996846,179.20400759996846,180.54053769999882,l,1.3315853000385687,None,4,001,2024-11-21_18h27.37.696,delay_discounting,2024.1.5,None,2024-11-21 18h27.48.636432 +0530,
78,80,162,9,4,67,6,180.5539615000016,,180.54199329996482,180.5539615000016,181.5537925999961,181.5537925999961,181.5537925999961,182.95552039996255,t,1.3890795999905095,None,4,001,2024-11-21_18h27.37.696,delay_discounting,2024.1.5,None,2024-11-21 18h27.48.636432 +0530,
15,35,14,9,5,68,1,182.9703059999738,,182.95644270000048,182.9703059999738,183.97061609994853,183.97061609994853,183.97061609994853,185.73900909995427,l,1.7579134000116028,None,4,001,2024-11-21_18h27.37.696,delay_discounting,2024.1.5,None,2024-11-21 18h27.48.636432 +0530,
49,60,89,9,6,69,4,185.75362169998698,,185.73991699999897,185.75362169998698,186.75395759998355,186.75395759998355,186.75395759998355,187.78897599998163,t,1.0224790000356734,None,4,001,2024-11-21_18h27.37.696,delay_discounting,2024.1.5,None,2024-11-21 18h27.48.636432 +0530,
27,50,21,10,0,70,2,187.80367049999768,,187.7899651999469,187.80367049999768,188.80385169998044,188.80385169998044,188.80385169998044,190.00636329996632,l,1.1861970000318252,None,4,001,2024-11-21_18h27.37.696,delay_discounting,2024.1.5,None,2024-11-21 18h27.48.636432 +0530,
15,35,14,10,1,71,1,190.02020529995207,,190.00718669994967,190.02020529995207,191.02050099999178,191.02050099999178,191.02050099999178,192.15619129996048,l,1.1288105999701656,None,4,001,2024-11-21_18h27.37.696,delay_discounting,2024.1.5,None,2024-11-21 18h27.48.636432 +0530,
40,55,62,10,2,72,3,192.17020629998296,,192.1574879999971,192.17020629998296,193.17054319998715,193.17054319998715,193.17054319998715,194.25581439997768,t,1.0782525999820791,None,4,001,2024-11-21_18h27.37.696,delay_discounting,2024.1.5,None,2024-11-21 18h27.48.636432 +0530,
67,75,119,10,3,73,5,194.27115249994677,,194.25686769996537,194.27115249994677,195.27055229997495,195.27055229997495,195.27055229997495,197.0564853999531,t,1.7811900000087917,None,4,001,2024-11-21_18h27.37.696,delay_discounting,2024.1.5,None,2024-11-21 18h27.48.636432 +0530,
11,30,7,10,4,74,0,197.07027179998113,,197.05785059998743,197.07027179998113,198.07064969994826,198.07064969994826,198.07064969994826,199.05558079999173,l,0.9683814000454731,None,4,001,2024-11-21_18h27.37.696,delay_discounting,2024.1.5,None,2024-11-21 18h27.48.636432 +0530,
78,80,162,10,5,75,6,199.0700506999856,,199.05681539996294,199.0700506999856,200.070593499986,200.070593499986,200.070593499986,201.63859819999197,t,1.5502500000293367,None,4,001,2024-11-21_18h27.37.696,delay_discounting,2024.1.5,None,2024-11-21 18h27.48.636432 +0530,
49,60,89,10,6,76,4,201.65348959999392,,201.64008539996576,201.65348959999392,202.65390299999854,202.65390299999854,202.65390299999854,204.0727599999518,t,1.4122320000315085,None,4,001,2024-11-21_18h27.37.696,delay_discounting,2024.1.5,None,2024-11-21 18h27.48.636432 +0530,
11,30,7,11,0,77,0,204.08697439997923,,204.07401089998893,204.08697439997923,205.08732249995228,205.08732249995228,205.08732249995228,206.02247079997323,l,0.9227301999926567,None,4,001,2024-11-21_18h27.37.696,delay_discounting,2024.1.5,None,2024-11-21 18h27.48.636432 +0530,
40,55,62,11,1,78,3,206.03686959994957,,206.02333929995075,206.03686959994957,207.0369747999939,207.0369747999939,207.0369747999939,208.10625169996638,t,1.0635401000035927,None,4,001,2024-11-21_18h27.37.696,delay_discounting,2024.1.5,None,2024-11-21 18h27.48.636432 +0530,
49,60,89,11,2,79,4,208.12022139999317,,208.10751339996932,208.12022139999317,209.1209089999902,209.1209089999902,209.1209089999902,210.05662489996757,l,0.9296900000190362,None,4,001,2024-11-21_18h27.37.696,delay_discounting,2024.1.5,None,2024-11-21 18h27.48.636432 +0530,
27,50,21,11,3,80,2,210.07034239999484,,210.05806529999245,210.07034239999484,211.07047949999105,211.07047949999105,211.07047949999105,213.6728798999684,t,2.5943167000077665,None,4,001,2024-11-21_18h27.37.696,delay_discounting,2024.1.5,None,2024-11-21 18h27.48.636432 +0530,
78,80,162,11,4,81,6,213.68686619994696,,213.67374709999422,213.68686619994696,214.68733009998687,214.68733009998687,214.68733009998687,216.38938319997396,t,1.6943807000061497,None,4,001,2024-11-21_18h27.37.696,delay_discounting,2024.1.5,None,2024-11-21 18h27.48.636432 +0530,
67,75,119,11,5,82,5,216.4036841999623,,216.39041559997713,216.4036841999623,217.40417860000161,217.40417860000161,217.40417860000161,219.3560210999567,t,1.9460444999858737,None,4,001,2024-11-21_18h27.37.696,delay_discounting,2024.1.5,None,2024-11-21 18h27.48.636432 +0530,
15,35,14,11,6,83,1,219.3701964999782,,219.35759019997204,219.3701964999782,220.37077689997386,220.37077689997386,220.37077689997386,221.80546759994468,l,1.417958699981682,None,4,001,2024-11-21_18h27.37.696,delay_discounting,2024.1.5,None,2024-11-21 18h27.48.636432 +0530,
49,60,89,12,0,84,4,221.82014389999676,,221.8066131999949,221.82014389999676,222.8206011999864,222.8206011999864,222.8206011999864,224.7725303999614,t,1.942683200002648,None,4,001,2024-11-21_18h27.37.696,delay_discounting,2024.1.5,None,2024-11-21 18h27.48.636432 +0530,
27,50,21,12,1,85,2,224.78690539998934,,224.7735085999593,224.78690539998934,225.7872782999766,225.7872782999766,225.7872782999766,226.68972589995246,l,0.8962015999713913,None,4,001,2024-11-21_18h27.37.696,delay_discounting,2024.1.5,None,2024-11-21 18h27.48.636432 +0530,
40,55,62,12,2,86,3,226.70375269994838,,226.69076479994692,226.70375269994838,227.70401879999554,227.70401879999554,227.70401879999554,228.85571189998882,t,1.1453749000211246,None,4,001,2024-11-21_18h27.37.696,delay_discounting,2024.1.5,None,2024-11-21 18h27.48.636432 +0530,
11,30,7,12,3,87,0,228.8705172999762,,228.85759279999183,228.8705172999762,229.8712145999889,229.8712145999889,229.8712145999889,230.7059960999759,l,0.8270403000060469,None,4,001,2024-11-21_18h27.37.696,delay_discounting,2024.1.5,None,2024-11-21 18h27.48.636432 +0530,
78,80,162,12,4,88,6,230.7202645999496,,230.70686129998649,230.7202645999496,231.72060189995682,231.72060189995682,231.72060189995682,233.95796169998357,t,2.23089369997615,None,4,001,2024-11-21_18h27.37.696,delay_discounting,2024.1.5,None,2024-11-21 18h27.48.636432 +0530,
67,75,119,12,5,89,5,233.97112989996094,,233.95916749996832,233.97112989996094,234.97049239999615,234.97049239999615,234.97049239999615,236.67181609995896,t,1.6860537000466138,None,4,001,2024-11-21_18h27.37.696,delay_discounting,2024.1.5,None,2024-11-21 18h27.48.636432 +0530,
15,35,14,12,6,90,1,236.6868254999863,,236.67269629996736,236.6868254999863,237.687393399945,237.687393399945,237.687393399945,238.90527799999109,l,1.2016851999796927,None,4,001,2024-11-21_18h27.37.696,delay_discounting,2024.1.5,None,2024-11-21 18h27.48.636432 +0530,
40,55,62,13,0,91,3,238.9202910999884,,238.906156299985,238.9202910999884,239.92080839996925,239.92080839996925,239.92080839996925,241.57203099998878,t,1.6380021999939345,None,4,001,2024-11-21_18h27.37.696,delay_discounting,2024.1.5,None,2024-11-21 18h27.48.636432 +0530,
67,75,119,13,1,92,5,241.5868269999628,,241.57301110000117,241.5868269999628,242.58746389998123,242.58746389998123,242.58746389998123,243.85576710000169,t,1.2616970000090078,None,4,001,2024-11-21_18h27.37.696,delay_discounting,2024.1.5,None,2024-11-21 18h27.48.636432 +0530,
49,60,89,13,2,93,4,243.87076819996582,,243.85743929998716,243.87076819996582,244.8707273999462,244.8707273999462,244.8707273999462,246.60585229995195,t,1.72131040005479,None,4,001,2024-11-21_18h27.37.696,delay_discounting,2024.1.5,None,2024-11-21 18h27.48.636432 +0530,
15,35,14,13,3,94,1,246.62021809996804,,246.60835929994937,246.62021809996804,247.62060299998848,247.62060299998848,247.62060299998848,248.72229899995727,l,1.0870633000158705,None,4,001,2024-11-21_18h27.37.696,delay_discounting,2024.1.5,None,2024-11-21 18h27.48.636432 +0530,
27,50,21,13,4,95,2,248.73683429998346,,248.7235630999785,248.73683429998346,249.73731729999417,249.73731729999417,249.73731729999417,250.6224473999464,l,0.8794517000205815,None,4,001,2024-11-21_18h27.37.696,delay_discounting,2024.1.5,None,2024-11-21 18h27.48.636432 +0530,
11,30,7,13,5,96,0,250.63704539998434,,250.6238760999986,250.63704539998434,251.63754889997654,251.63754889997654,251.63754889997654,252.6062976999674,l,0.9595391000038944,None,4,001,2024-11-21_18h27.37.696,delay_discounting,2024.1.5,None,2024-11-21 18h27.48.636432 +0530,
78,80,162,13,6,97,6,252.62009029998444,,252.60772719996748,252.62009029998444,253.62028539995663,253.62028539995663,253.62028539995663,254.4388323999592,t,0.8099165000021458,None,4,001,2024-11-21_18h27.37.696,delay_discounting,2024.1.5,None,2024-11-21 18h27.48.636432 +0530,
15,35,14,14,0,98,1,254.4536646999768,,254.4401855999604,254.4536646999768,255.45419540000148,255.45419540000148,255.45419540000148,256.4054070999846,l,0.9386528999893926,None,4,001,2024-11-21_18h27.37.696,delay_discounting,2024.1.5,None,2024-11-21 18h27.48.636432 +0530,
11,30,7,14,1,99,0,256.4202542999992,,256.4062600999605,256.4202542999992,257.4207124999957,257.4207124999957,257.4207124999957,258.1231528999633,l,0.6985965000349097,None,4,001,2024-11-21_18h27.37.696,delay_discounting,2024.1.5,None,2024-11-21 18h27.48.636432 +0530,
78,80,162,14,2,100,6,258.1386974999914,,258.1244785999879,258.1386974999914,259.1375448999461,259.1375448999461,259.1540794999455,259.97276629996486,t,0.8252814000006765,None,4,001,2024-11-21_18h27.37.696,delay_discounting,2024.1.5,None,2024-11-21 18h27.48.636432 +0530,
67,75,119,14,3,101,5,259.98694939998677,,259.9740181999514,259.98694939998677,260.9873523999704,260.9873523999704,260.9873523999704,261.95614209998166,t,0.9594312999979593,None,4,001,2024-11-21_18h27.37.696,delay_discounting,2024.1.5,None,2024-11-21 18h27.48.636432 +0530,
40,55,62,14,4,102,3,261.9702270999551,,261.95776949997526,261.9702270999551,262.97078469995176,262.97078469995176,262.97078469995176,264.63895009999396,l,1.6523576999898069,None,4,001,2024-11-21_18h27.37.696,delay_discounting,2024.1.5,None,2024-11-21 18h27.48.636432 +0530,
27,50,21,14,5,103,2,264.65371849999065,,264.63981249998324,264.65371849999065,265.65416949999053,265.65416949999053,265.65416949999053,266.6721275000018,l,1.0064862000290304,None,4,001,2024-11-21_18h27.37.696,delay_discounting,2024.1.5,None,2024-11-21 18h27.48.636432 +0530,
49,60,89,14,6,104,4,266.68701449997025,,266.67314879997866,266.68701449997025,267.6873553999467,267.6873553999467,267.6873553999467,268.5225031999871,t,0.8248448999947868,None,4,001,2024-11-21_18h27.37.696,delay_discounting,2024.1.5,None,2024-11-21 18h27.48.636432 +0530,
