trials.thisRepN,trials.thisTrialN,trials.thisN,trials.thisIndex,thisRow.t,notes,trial.started,num_distr,fixation.started,target.started,mouse.started,trial.stopped,mouse.x,mouse.y,mouse.leftButton,mouse.midButton,mouse.rightButton,mouse.time,mouse.clicked_name,participant,session,date,expName,psychopyVersion,frameRate,expStart,
0,0,0,0,0.09318259998690337,,0.018811099929735065,5,0.09318259998690337,0.09318259998690337,0.05822140001691878,10.243888499913737,[0.3351851851851852],[-0.04351851851851852],[1],[0],[0],[10.184670899994671],['target'],1,001,2024-10-09_12h18.26.273,visualsearch,2024.1.5,None,2024-10-09 12h18.42.273730 +0530,
1,0,1,0,10.294070299947634,,10.249352899962105,10,10.294070299947634,10.294070299947634,0.0325349000049755,14.9740393999964,[-0.4148148148148148],[0.1527777777777778],[1],[0],[0],[4.692263000062667],['target'],1,001,2024-10-09_12h18.26.273,visualsearch,2024.1.5,None,2024-10-09 12h18.42.273730 +0530,
2,0,2,0,15.039349499973468,,14.977559699909762,10,15.039349499973468,15.039349499973468,0.04983929998707026,19.991954699973576,[0.45185185185185184],[-0.12777777777777777],[1],[0],[0],[4.96474619989749],['target'],1,001,2024-10-09_12h18.26.273,visualsearch,2024.1.5,None,2024-10-09 12h18.42.273730 +0530,
3,0,3,0,20.040196399902925,,19.996275599929504,5,20.040196399902925,20.040196399902925,0.03007350000552833,23.491189699969254,[0.45925925925925926],[-0.37037037037037035],[1],[0],[0],[3.4648067000089213],['target'],1,001,2024-10-09_12h18.26.273,visualsearch,2024.1.5,None,2024-10-09 12h18.42.273730 +0530,
4,0,4,0,23.5267915999284,,23.495918600005098,5,23.5267915999284,23.5267915999284,0.02351600001566112,25.607961499947123,[-0.016666666666666666],[-0.21203703703703702],[1],[0],[0],[2.089018499944359],['target'],1,001,2024-10-09_12h18.26.273,visualsearch,2024.1.5,None,2024-10-09 12h18.42.273730 +0530,
5,0,5,0,25.647973299957812,,25.61506320000626,5,25.647973299957812,25.647973299957812,0.023709699977189302,27.67479750001803,[-0.3675925925925926],[-0.17685185185185184],[1],[0],[0],[2.036771500017494],['target'],1,001,2024-10-09_12h18.26.273,visualsearch,2024.1.5,None,2024-10-09 12h18.42.273730 +0530,
6,0,6,0,27.703540699905716,,27.678500999929383,5,27.703540699905716,27.703540699905716,0.016996499965898693,35.45908109995071,[0.24814814814814815],[0.47129629629629627],[1],[0],[0],[7.763633800088428],['target'],1,001,2024-10-09_12h18.26.273,visualsearch,2024.1.5,None,2024-10-09 12h18.42.273730 +0530,
7,0,7,0,35.50923089997377,,35.46392689994536,10,35.50923089997377,35.50923089997377,0.03254829999059439,37.807412799913436,[-0.44074074074074077],[-0.21388888888888888],[1],[0],[0],[2.311187900020741],['target'],1,001,2024-10-09_12h18.26.273,visualsearch,2024.1.5,None,2024-10-09 12h18.42.273730 +0530,
8,0,8,0,37.838516199961305,,37.812411999912,5,37.838516199961305,37.838516199961305,0.018662599963136017,40.80789339996409,[-0.013888888888888888],[0.08981481481481482],[1],[0],[0],[2.977202699985355],['target'],1,001,2024-10-09_12h18.26.273,visualsearch,2024.1.5,None,2024-10-09 12h18.42.273730 +0530,
9,0,9,0,40.84039499994833,,40.81246549997013,5,40.84039499994833,40.84039499994833,0.02025039994623512,42.79144629999064,[-0.1574074074074074],[-0.027777777777777776],[1],[0],[0],[1.9591122000711039],['target'],1,001,2024-10-09_12h18.26.273,visualsearch,2024.1.5,None,2024-10-09 12h18.42.273730 +0530,
10,0,10,0,42.85389759996906,,42.79805729992222,10,42.85389759996906,42.85389759996906,0.04163260001223534,50.19107970001642,[0.2222222222222222],[0.1638888888888889],[1],[0],[0],[7.351868700003251],['target'],1,001,2024-10-09_12h18.26.273,visualsearch,2024.1.5,None,2024-10-09 12h18.42.273730 +0530,
11,0,11,0,50.22030329995323,,50.19603160000406,5,50.22030329995323,50.22030329995323,0.017697400064207613,52.3950443000067,[-0.04537037037037037],[0.2490740740740741],[1],[0],[0],[2.1811827999772504],['target'],1,001,2024-10-09_12h18.26.273,visualsearch,2024.1.5,None,2024-10-09 12h18.42.273730 +0530,
12,0,12,0,52.45428979990538,,52.400418799952604,10,52.45428979990538,52.45428979990538,0.0369722000323236,55.95774779992644,[0.1574074074074074],[-0.3648148148148148],[1],[0],[0],[3.5207940000109375],['target'],1,001,2024-10-09_12h18.26.273,visualsearch,2024.1.5,None,2024-10-09 12h18.42.273730 +0530,
13,0,13,0,56.01764939993154,,55.96153440000489,10,56.01764939993154,56.01764939993154,0.03670230007264763,61.026047299965285,[0.48055555555555557],[0.46296296296296297],[1],[0],[0],[5.028589099994861],['target'],1,001,2024-10-09_12h18.26.273,visualsearch,2024.1.5,None,2024-10-09 12h18.42.273730 +0530,
14,0,14,0,61.086634399951436,,61.03148120001424,10,61.086634399951436,61.086634399951436,0.034606499946676195,64.34277119999751,[0.24537037037037038],[-0.2388888888888889],[1],[0],[0],[3.277501599979587],['target'],1,001,2024-10-09_12h18.26.273,visualsearch,2024.1.5,None,2024-10-09 12h18.42.273730 +0530,
15,0,15,0,64.39892750000581,,64.34673069999553,10,64.39892750000581,64.39892750000581,0.03654699993785471,66.56007209990639,[-0.3925925925925926],[0.2175925925925926],[1],[0],[0],[2.1772727000061423],['target'],1,001,2024-10-09_12h18.26.273,visualsearch,2024.1.5,None,2024-10-09 12h18.42.273730 +0530,
16,0,16,0,66.62684309994802,,66.56618959992193,10,66.62684309994802,66.62684309994802,0.04375790001358837,68.97524619998876,[-0.1814814814814815],[-0.16018518518518518],[1],[0],[0],[2.3656454998999834],['target'],1,001,2024-10-09_12h18.26.273,visualsearch,2024.1.5,None,2024-10-09 12h18.42.273730 +0530,
17,0,17,0,69.02432530000806,,68.9792648999719,10,69.02432530000806,69.02432530000806,0.03266449994407594,71.04350539995357,[-0.07222222222222222],[-0.1037037037037037],[1],[0],[0],[2.03163520002272],['target'],1,001,2024-10-09_12h18.26.273,visualsearch,2024.1.5,None,2024-10-09 12h18.42.273730 +0530,
18,0,18,0,71.0842916999245,,71.05007859994657,5,71.0842916999245,71.0842916999245,0.02161090006120503,78.39315899997018,[0.4388888888888889],[0.10740740740740741],[1],[0],[0],[7.321064599906094],['target'],1,001,2024-10-09_12h18.26.273,visualsearch,2024.1.5,None,2024-10-09 12h18.42.273730 +0530,
19,0,19,0,78.42770269990433,,78.39873779995833,5,78.42770269990433,78.42770269990433,0.01822540001012385,90.52476810000371,[-0.16574074074074074],[0.4638888888888889],[1],[0],[0],[12.108272999990731],['target'],1,001,2024-10-09_12h18.26.273,visualsearch,2024.1.5,None,2024-10-09 12h18.42.273730 +0530,
20,0,20,0,90.57874819997232,,90.52764439990278,10,90.57874819997232,90.57874819997232,0.03730429999995977,94.30828989995643,[0.30648148148148147],[0.48703703703703705],[1],[0],[0],[3.7434142000274733],['target'],1,001,2024-10-09_12h18.26.273,visualsearch,2024.1.5,None,2024-10-09 12h18.42.273730 +0530,
21,0,21,0,94.34468430001289,,94.31156219996046,5,94.34468430001289,94.34468430001289,0.021858699969016016,96.39161910000257,[-0.1962962962962963],[0.2935185185185185],[1],[0],[0],[2.0583843000931665],['target'],1,001,2024-10-09_12h18.26.273,visualsearch,2024.1.5,None,2024-10-09 12h18.42.273730 +0530,
22,0,22,0,96.46059489995241,,96.39574730000459,10,96.46059489995241,96.46059489995241,0.051105900085531175,102.74107439990621,[0.3972222222222222],[-0.18518518518518517],[1],[0],[0],[6.294743999955244],['target'],1,001,2024-10-09_12h18.26.273,visualsearch,2024.1.5,None,2024-10-09 12h18.42.273730 +0530,
23,0,23,0,102.80957289994694,,102.74585539998952,10,102.80957289994694,102.80957289994694,0.0484821000136435,106.54103159997612,[0.38333333333333336],[0.21203703703703702],[1],[0],[0],[3.746783700073138],['target'],1,001,2024-10-09_12h18.26.273,visualsearch,2024.1.5,None,2024-10-09 12h18.42.273730 +0530,
24,0,24,0,106.57148819998838,,106.54615429998375,5,106.57148819998838,106.57148819998838,0.016527700005099177,110.02475479990244,[0.0962962962962963],[0.028703703703703703],[1],[0],[0],[3.4620589999249205],['target'],1,001,2024-10-09_12h18.26.273,visualsearch,2024.1.5,None,2024-10-09 12h18.42.273730 +0530,
25,0,25,0,110.06030399992596,,110.0325104999356,5,110.06030399992596,110.06030399992596,0.019758100039325655,114.54155289998744,[-0.21666666666666667],[0.09166666666666666],[1],[0],[0],[4.4900357000296935],['target'],1,001,2024-10-09_12h18.26.273,visualsearch,2024.1.5,None,2024-10-09 12h18.42.273730 +0530,
26,0,26,0,114.59678969997913,,114.54885309992824,10,114.59678969997913,114.59678969997913,0.03383670002222061,116.94463249994442,[0.3851851851851852],[0.04537037037037037],[1],[0],[0],[2.3622888000681996],['target'],1,001,2024-10-09_12h18.26.273,visualsearch,2024.1.5,None,2024-10-09 12h18.42.273730 +0530,
27,0,27,0,116.9811519999057,,116.94890019996092,5,116.9811519999057,116.9811519999057,0.023767499951645732,118.94335129996762,[-0.07962962962962963],[-0.05462962962962963],[1],[0],[0],[1.9712322000414133],['target'],1,001,2024-10-09_12h18.26.273,visualsearch,2024.1.5,None,2024-10-09 12h18.42.273730 +0530,
28,0,28,0,118.97713869996369,,118.94851969997399,5,118.97713869996369,118.97713869996369,0.02021639992017299,120.89156789996196,[0.08888888888888889],[0.41203703703703703],[1],[0],[0],[1.9229036999167874],['target'],1,001,2024-10-09_12h18.26.273,visualsearch,2024.1.5,None,2024-10-09 12h18.42.273730 +0530,
29,0,29,0,120.94824709999375,,120.898270900012,5,120.94824709999375,120.94824709999375,0.03954949998296797,123.46042969997507,[-0.08518518518518518],[-0.16944444444444445],[1],[0],[0],[2.5229145999765024],['target'],1,001,2024-10-09_12h18.26.273,visualsearch,2024.1.5,None,2024-10-09 12h18.42.273730 +0530,
30,0,30,0,123.54224589990918,,123.46606459992472,10,123.54224589990918,123.54224589990918,0.045862299972213805,125.44226199993864,[-0.30925925925925923],[-0.2611111111111111],[1],[0],[0],[1.9311176999472082],['target'],1,001,2024-10-09_12h18.26.273,visualsearch,2024.1.5,None,2024-10-09 12h18.42.273730 +0530,
31,0,31,0,125.5116925999755,,125.44642509997357,10,125.5116925999755,125.5116925999755,0.03368079999927431,128.30862099991646,[0.38055555555555554],[-0.39351851851851855],[1],[0],[0],[2.8286215000553057],['target'],1,001,2024-10-09_12h18.26.273,visualsearch,2024.1.5,None,2024-10-09 12h18.42.273730 +0530,
32,0,32,0,128.34241229994223,,128.3146755999187,5,128.34241229994223,128.34241229994223,0.01919699995778501,131.77535999997053,[-0.06851851851851852],[-0.19907407407407407],[1],[0],[0],[3.442739099962637],['target'],1,001,2024-10-09_12h18.26.273,visualsearch,2024.1.5,None,2024-10-09 12h18.42.273730 +0530,
33,0,33,0,131.83670699992217,,131.7805671999231,10,131.83670699992217,131.83670699992217,0.03493439999874681,138.69409659993835,[-0.1962962962962963],[0.003703703703703704],[1],[0],[0],[6.879564999951981],['target'],1,001,2024-10-09_12h18.26.273,visualsearch,2024.1.5,None,2024-10-09 12h18.42.273730 +0530,
34,0,34,0,138.74787949991878,,138.70152060000692,5,138.74787949991878,138.74787949991878,0.02273970004171133,143.89106749999337,[-0.13055555555555556],[-0.19166666666666668],[1],[0],[0],[5.167813400039449],['target'],1,001,2024-10-09_12h18.26.273,visualsearch,2024.1.5,None,2024-10-09 12h18.42.273730 +0530,
35,0,35,0,143.93016749992967,,143.89550849993248,5,143.93016749992967,143.93016749992967,0.021712600020691752,151.04125279991422,[0.425],[-0.32407407407407407],[1],[0],[0],[7.124083700007759],['target'],1,001,2024-10-09_12h18.26.273,visualsearch,2024.1.5,None,2024-10-09 12h18.42.273730 +0530,
36,0,36,0,151.07215559994802,,151.04545440000948,5,151.07215559994802,151.07215559994802,0.01745749998372048,153.66006869997364,[0.4546296296296296],[-0.4638888888888889],[1],[0],[0],[2.597124999971129],['target'],1,001,2024-10-09_12h18.26.273,visualsearch,2024.1.5,None,2024-10-09 12h18.42.273730 +0530,
37,0,37,0,153.6977561999811,,153.6673351000063,5,153.6977561999811,153.6977561999811,0.023036999977193773,155.87536629999522,[0.3175925925925926],[0.18425925925925926],[1],[0],[0],[2.185927499900572],['target'],1,001,2024-10-09_12h18.26.273,visualsearch,2024.1.5,None,2024-10-09 12h18.42.273730 +0530,
38,0,38,0,155.95137309993152,,155.87930499995127,10,155.95137309993152,155.95137309993152,0.03552120004314929,159.3576362999156,[-0.18611111111111112],[-0.30185185185185187],[1],[0],[0],[3.442874599946663],['target'],1,001,2024-10-09_12h18.26.273,visualsearch,2024.1.5,None,2024-10-09 12h18.42.273730 +0530,
39,0,39,0,159.43937199993525,,159.3639585999772,10,159.43937199993525,159.43937199993525,0.05752749997191131,168.77693109994289,[0.44722222222222224],[0.3],[1],[0],[0],[9.355516399955377],['target'],1,001,2024-10-09_12h18.26.273,visualsearch,2024.1.5,None,2024-10-09 12h18.42.273730 +0530,
40,0,40,0,168.83609230001457,,168.78046079992782,10,168.83609230001457,168.83609230001457,0.03990059997886419,172.19155519991182,[-0.425],[0.04722222222222222],[1],[0],[0],[3.371102900011465],['target'],1,001,2024-10-09_12h18.26.273,visualsearch,2024.1.5,None,2024-10-09 12h18.42.273730 +0530,
41,0,41,0,172.246607100009,,172.19574599992484,10,172.246607100009,172.246607100009,0.037033700034953654,175.42446080001537,[0.22037037037037038],[-0.06851851851851852],[1],[0],[0],[3.1919319999869913],['target'],1,001,2024-10-09_12h18.26.273,visualsearch,2024.1.5,None,2024-10-09 12h18.42.273730 +0530,
42,0,42,0,175.47245289990678,,175.42902949999552,5,175.47245289990678,175.47245289990678,0.030750500038266182,178.12492819991894,[-0.32407407407407407],[-0.4666666666666667],[1],[0],[0],[2.665116799995303],['target'],1,001,2024-10-09_12h18.26.273,visualsearch,2024.1.5,None,2024-10-09 12h18.42.273730 +0530,
43,0,43,0,178.1788755999878,,178.1289085999597,10,178.1788755999878,178.1788755999878,0.03605049999896437,181.49092419992667,[0.30925925925925923],[0.2101851851851852],[1],[0],[0],[3.3261072000022978],['target'],1,001,2024-10-09_12h18.26.273,visualsearch,2024.1.5,None,2024-10-09 12h18.42.273730 +0530,
44,0,44,0,181.5231111999601,,181.49431019998156,5,181.5231111999601,181.5231111999601,0.018766899942420423,183.37505729997065,[0.06388888888888888],[-0.11944444444444445],[1],[0],[0],[1.8619304000167176],['target'],1,001,2024-10-09_12h18.26.273,visualsearch,2024.1.5,None,2024-10-09 12h18.42.273730 +0530,
45,0,45,0,183.414014399983,,183.38125019997824,5,183.414014399983,183.414014399983,0.022967000026255846,187.25876319990493,[-0.30092592592592593],[0.39351851851851855],[1],[0],[0],[3.8547437000088394],['target'],1,001,2024-10-09_12h18.26.273,visualsearch,2024.1.5,None,2024-10-09 12h18.42.273730 +0530,
46,0,46,0,187.28890980000142,,187.26305029995274,5,187.28890980000142,187.28890980000142,0.017665299936197698,190.87523100001272,[0.24444444444444444],[-0.26944444444444443],[1],[0],[0],[3.594627399928868],['target'],1,001,2024-10-09_12h18.26.273,visualsearch,2024.1.5,None,2024-10-09 12h18.42.273730 +0530,
47,0,47,0,190.9309523999691,,190.88106059993152,10,190.9309523999691,190.9309523999691,0.03676849999465048,197.80975509993732,[0.14814814814814814],[-0.38981481481481484],[1],[0],[0],[6.892426099977456],['target'],1,001,2024-10-09_12h18.26.273,visualsearch,2024.1.5,None,2024-10-09 12h18.42.273730 +0530,
48,0,48,0,197.86183579999488,,197.81370699999388,10,197.86183579999488,197.86183579999488,0.03455680003389716,201.42530989996158,[-0.4027777777777778],[-0.0787037037037037],[1],[0],[0],[3.5771191000239924],['target'],1,001,2024-10-09_12h18.26.273,visualsearch,2024.1.5,None,2024-10-09 12h18.42.273730 +0530,
49,0,49,0,201.48602089995984,,201.42864009994082,10,201.48602089995984,201.48602089995984,0.04281570005696267,204.50865269999485,[0.32685185185185184],[0.025],[1],[0],[0],[3.0371639999793842],['target'],1,001,2024-10-09_12h18.26.273,visualsearch,2024.1.5,None,2024-10-09 12h18.42.273730 +0530,
50,0,50,0,204.54185729997698,,204.51390839996748,5,204.54185729997698,204.54185729997698,0.01908889994956553,208.8916238999227,[-0.26296296296296295],[-0.04351851851851852],[1],[0],[0],[4.359059199923649],['target'],1,001,2024-10-09_12h18.26.273,visualsearch,2024.1.5,None,2024-10-09 12h18.42.273730 +0530,
51,0,51,0,208.92669049999677,,208.89635880000424,5,208.92669049999677,208.92669049999677,0.020480900071561337,213.82768039999064,[0.3675925925925926],[0.27037037037037037],[1],[0],[0],[4.911269500036724],['target'],1,001,2024-10-09_12h18.26.273,visualsearch,2024.1.5,None,2024-10-09 12h18.42.273730 +0530,
52,0,52,0,213.8710745999124,,213.83519010001328,5,213.8710745999124,213.8710745999124,0.025012099999003112,216.05961180001032,[-0.03981481481481482],[-0.22037037037037038],[1],[0],[0],[2.2011993000051007],['target'],1,001,2024-10-09_12h18.26.273,visualsearch,2024.1.5,None,2024-10-09 12h18.42.273730 +0530,
53,0,53,0,216.09519609995186,,216.06559449993074,5,216.09519609995186,216.09519609995186,0.022153500001877546,224.05822539993096,[-0.45925925925925926],[-0.30648148148148147],[1],[0],[0],[7.97109550004825],['target'],1,001,2024-10-09_12h18.26.273,visualsearch,2024.1.5,None,2024-10-09 12h18.42.273730 +0530,
54,0,54,0,224.08935589995235,,224.06258629995864,5,224.08935589995235,224.08935589995235,0.018128099967725575,227.99473349994514,[0.3277777777777778],[0.47685185185185186],[1],[0],[0],[3.9142488000215963],['target'],1,001,2024-10-09_12h18.26.273,visualsearch,2024.1.5,None,2024-10-09 12h18.42.273730 +0530,
55,0,55,0,228.02608509990387,,227.9997963999631,5,228.02608509990387,228.02608509990387,0.01826359995175153,229.74185769993346,[-0.000925925925925926],[-0.1287037037037037],[1],[0],[0],[1.7239814000204206],['target'],1,001,2024-10-09_12h18.26.273,visualsearch,2024.1.5,None,2024-10-09 12h18.42.273730 +0530,
56,0,56,0,229.7813288999023,,229.74857279995922,5,229.7813288999023,229.7813288999023,0.02213820000179112,231.89240999997128,[-0.36018518518518516],[-0.18425925925925926],[1],[0],[0],[2.1217530000722036],['target'],1,001,2024-10-09_12h18.26.273,visualsearch,2024.1.5,None,2024-10-09 12h18.42.273730 +0530,
57,0,57,0,231.9485483999597,,231.89786629995797,10,231.9485483999597,231.9485483999597,0.037074799998663366,234.25998839992099,[-0.13703703703703704],[0.06296296296296296],[1],[0],[0],[2.32531480002217],[],1,001,2024-10-09_12h18.26.273,visualsearch,2024.1.5,None,2024-10-09 12h18.42.273730 +0530,
58,0,58,0,234.29171249992214,,234.26504779991228,5,234.29171249992214,234.29171249992214,0.019744900055229664,236.77531799999997,[-0.025],[0.4305555555555556],[1],[0],[0],[2.4914106000214815],['target'],1,001,2024-10-09_12h18.26.273,visualsearch,2024.1.5,None,2024-10-09 12h18.42.273730 +0530,
59,0,59,0,236.8278905999614,,236.78100149997044,10,236.8278905999614,236.8278905999614,0.03375539998523891,239.36055370001122,[-0.4685185185185185],[0.33611111111111114],[1],[0],[0],[2.5460075000301003],['target'],1,001,2024-10-09_12h18.26.273,visualsearch,2024.1.5,None,2024-10-09 12h18.42.273730 +0530,
60,0,60,0,239.39615929999854,,239.3648960000137,5,239.39615929999854,239.39615929999854,0.02321819995995611,241.110551699996,[-0.4],[-0.06111111111111111],[1],[0],[0],[1.722726700012572],['target'],1,001,2024-10-09_12h18.26.273,visualsearch,2024.1.5,None,2024-10-09 12h18.42.273730 +0530,
61,0,61,0,241.16921309998725,,241.11644689994864,10,241.16921309998725,241.16921309998725,0.03915669990237802,243.47641909995582,[-0.14351851851851852],[0.15555555555555556],[1],[0],[0],[2.3212108000880107],['target'],1,001,2024-10-09_12h18.26.273,visualsearch,2024.1.5,None,2024-10-09 12h18.42.273730 +0530,
62,0,62,0,243.5315100000007,,243.47972429997753,10,243.5315100000007,243.5315100000007,0.036476499983109534,246.92436019994784,[0.38796296296296295],[-0.18425925925925926],[1],[0],[0],[3.408272600034252],['target'],1,001,2024-10-09_12h18.26.273,visualsearch,2024.1.5,None,2024-10-09 12h18.42.273730 +0530,
63,0,63,0,246.95515749999322,,246.92954429995734,5,246.95515749999322,246.95515749999322,0.01679580006748438,249.3089028999675,[0.20555555555555555],[0.11018518518518519],[1],[0],[0],[2.3625399000011384],['target'],1,001,2024-10-09_12h18.26.273,visualsearch,2024.1.5,None,2024-10-09 12h18.42.273730 +0530,
64,0,64,0,249.36838429991622,,249.3150209999876,5,249.36838429991622,249.36838429991622,0.04130310006439686,251.1910690999357,[0.3472222222222222],[-0.017592592592592594],[1],[0],[0],[1.8351844999706373],['target'],1,001,2024-10-09_12h18.26.273,visualsearch,2024.1.5,None,2024-10-09 12h18.42.273730 +0530,
65,0,65,0,251.24535959993955,,251.19396109995432,10,251.24535959993955,251.24535959993955,0.03763979999348521,254.15782969992142,[0.06574074074074074],[0.10555555555555556],[1],[0],[0],[2.926260800100863],['target'],1,001,2024-10-09_12h18.26.273,visualsearch,2024.1.5,None,2024-10-09 12h18.42.273730 +0530,
66,0,66,0,254.21918759995606,,254.16262309998274,10,254.21918759995606,254.21918759995606,0.039029299980029464,257.05830999999307,[-0.11481481481481481],[-0.3925925925925926],[1],[0],[0],[2.8566101000178605],['target'],1,001,2024-10-09_12h18.26.273,visualsearch,2024.1.5,None,2024-10-09 12h18.42.273730 +0530,
67,0,67,0,257.08963139995467,,257.06161530001555,5,257.08963139995467,257.08963139995467,0.018809400033205748,260.30842329992447,[-0.4861111111111111],[0.016666666666666666],[1],[0],[0],[3.2278386999387294],['target'],1,001,2024-10-09_12h18.26.273,visualsearch,2024.1.5,None,2024-10-09 12h18.42.273730 +0530,
68,0,68,0,260.3455330999568,,260.31453969993163,5,260.3455330999568,260.3455330999568,0.02148500003386289,263.6426610999042,[0.2712962962962963],[-0.38796296296296295],[1],[0],[0],[3.307450499967672],['target'],1,001,2024-10-09_12h18.26.273,visualsearch,2024.1.5,None,2024-10-09 12h18.42.273730 +0530,
69,0,69,0,263.6769927999703,,263.647645699908,5,263.6769927999703,263.6769927999703,0.020798200042918324,265.8089981999947,[-0.024074074074074074],[0.2916666666666667],[1],[0],[0],[2.1415289000142366],['target'],1,001,2024-10-09_12h18.26.273,visualsearch,2024.1.5,None,2024-10-09 12h18.42.273730 +0530,
70,0,70,0,265.8852041999344,,265.8155123000033,10,265.8852041999344,265.8852041999344,0.05488049995619804,268.59781189996284,[0.425],[0.06574074074074074],[1],[0],[0],[2.7276249000569806],['target'],1,001,2024-10-09_12h18.26.273,visualsearch,2024.1.5,None,2024-10-09 12h18.42.273730 +0530,
71,0,71,0,268.66401059995405,,268.6050348000135,10,268.66401059995405,268.66401059995405,0.03977220004890114,271.3189427999314,[-0.38796296296296295],[-0.337037037037037],[1],[0],[0],[2.674778899992816],['target'],1,001,2024-10-09_12h18.26.273,visualsearch,2024.1.5,None,2024-10-09 12h18.42.273730 +0530,
72,0,72,0,271.3962175999768,,271.32832739991136,10,271.3962175999768,271.3962175999768,0.055947399931028485,274.1981684999773,[-0.4444444444444444],[0.43703703703703706],[1],[0],[0],[2.8136494000209495],['target'],1,001,2024-10-09_12h18.26.273,visualsearch,2024.1.5,None,2024-10-09 12h18.42.273730 +0530,
73,0,73,0,274.30170579999685,,274.20542000001296,10,274.30170579999685,274.30170579999685,0.05895570002030581,277.71780340000987,[0.16111111111111112],[0.3814814814814815],[1],[0],[0],[3.4546561000170186],['target'],1,001,2024-10-09_12h18.26.273,visualsearch,2024.1.5,None,2024-10-09 12h18.42.273730 +0530,
74,0,74,0,277.7837970999535,,277.7250330999959,5,277.7837970999535,277.7837970999535,0.04330739995930344,283.9262114999583,[0.4],[0.462037037037037],[1],[0],[0],[6.158988300012425],['target'],1,001,2024-10-09_12h18.26.273,visualsearch,2024.1.5,None,2024-10-09 12h18.42.273730 +0530,
75,0,75,0,283.9617720999522,,283.930099899997,5,283.9617720999522,283.9617720999522,0.020809900015592575,285.74317149992567,[0.06666666666666667],[0.11574074074074074],[1],[0],[0],[1.7920510000549257],['target'],1,001,2024-10-09_12h18.26.273,visualsearch,2024.1.5,None,2024-10-09 12h18.42.273730 +0530,
76,0,76,0,285.8386726999888,,285.7521494999528,10,285.8386726999888,285.8386726999888,0.06370930001139641,286.44128989998717,[0.06666666666666667],[0.11574074074074074],[1],[0],[0],[0.626751400064677],[],1,001,2024-10-09_12h18.26.273,visualsearch,2024.1.5,None,2024-10-09 12h18.42.273730 +0530,
77,0,77,0,286.48828139994293,,286.44675010000356,10,286.48828139994293,286.48828139994293,0.03091069997753948,287.8493942999048,[-0.2212962962962963],[0.21944444444444444],[1],[0],[0],[1.371763200033456],[],1,001,2024-10-09_12h18.26.273,visualsearch,2024.1.5,None,2024-10-09 12h18.42.273730 +0530,
78,0,78,0,287.9463468999602,,287.8607549999142,10,287.9463468999602,287.9463468999602,0.06521240004803985,288.50181249994785,[-0.2212962962962963],[0.21944444444444444],[1],[0],[0],[0.5774685000069439],[],1,001,2024-10-09_12h18.26.273,visualsearch,2024.1.5,None,2024-10-09 12h18.42.273730 +0530,
79,0,79,0,288.5381279999856,,288.506793599925,5,288.5381279999856,288.5381279999856,0.020101899979636073,288.9588952999329,[-0.2212962962962963],[0.21944444444444444],[1],[0],[0],[0.43252839997876436],[],1,001,2024-10-09_12h18.26.273,visualsearch,2024.1.5,None,2024-10-09 12h18.42.273730 +0530,
80,0,80,0,289.0158187999623,,288.96413929993287,10,289.0158187999623,289.0158187999623,0.03463260002899915,289.37425240001176,[-0.2212962962962963],[0.21944444444444444],[1],[0],[0],[0.37600609997753054],[],1,001,2024-10-09_12h18.26.273,visualsearch,2024.1.5,None,2024-10-09 12h18.42.273730 +0530,
81,0,81,0,289.40247869992163,,289.37888329999987,5,289.40247869992163,289.40247869992163,0.01635369996074587,292.1429425999522,[-0.25925925925925924],[-0.21388888888888888],[1],[0],[0],[2.7471208999631926],['target'],1,001,2024-10-09_12h18.26.273,visualsearch,2024.1.5,None,2024-10-09 12h18.42.273730 +0530,
82,0,82,0,292.18569760001265,,292.15023029991426,5,292.18569760001265,292.18569760001265,0.024151199962943792,293.05919539998285,[-0.25925925925925924],[-0.21388888888888888],[1],[0],[0],[0.8852286000037566],[],1,001,2024-10-09_12h18.26.273,visualsearch,2024.1.5,None,2024-10-09 12h18.42.273730 +0530,
83,0,83,0,293.09163349994924,,293.06494219996966,5,293.09163349994924,293.09163349994924,0.01814199995715171,293.59048499993514,[-0.25925925925925924],[-0.21388888888888888],[1],[0],[0],[0.5082108000060543],[],1,001,2024-10-09_12h18.26.273,visualsearch,2024.1.5,None,2024-10-09 12h18.42.273730 +0530,
84,0,84,0,293.64960389991757,,293.5950053000124,10,293.64960389991757,293.64960389991757,0.039248500019311905,297.92517099995166,[-0.2833333333333333],[0.18796296296296297],[1],[0],[0],[4.2908706000307575],['target'],1,001,2024-10-09_12h18.26.273,visualsearch,2024.1.5,None,2024-10-09 12h18.42.273730 +0530,
85,0,85,0,297.96553729998413,,297.9323783,5,297.96553729998413,297.96553729998413,0.021745900041423738,300.50857669999823,[-0.058333333333333334],[-0.041666666666666664],[1],[0],[0],[2.5551285000983626],['target'],1,001,2024-10-09_12h18.26.273,visualsearch,2024.1.5,None,2024-10-09 12h18.42.273730 +0530,
86,0,86,0,300.57749489997514,,300.5128060999559,10,300.57749489997514,300.57749489997514,0.0495108999311924,303.2422435999615,[-0.32685185185185184],[0.1175925925925926],[1],[0],[0],[2.6793401000322774],['target'],1,001,2024-10-09_12h18.26.273,visualsearch,2024.1.5,None,2024-10-09 12h18.42.273730 +0530,
87,0,87,0,303.2822040999308,,303.2478601000039,5,303.2822040999308,303.2822040999308,0.021484500030055642,305.2913298999192,[-0.03981481481481482],[-0.24166666666666667],[1],[0],[0],[2.0224571999860927],['target'],1,001,2024-10-09_12h18.26.273,visualsearch,2024.1.5,None,2024-10-09 12h18.42.273730 +0530,
88,0,88,0,305.33024179993663,,305.294920999906,5,305.33024179993663,305.33024179993663,0.02611599990632385,307.5274301000172,[-0.44814814814814813],[-0.03796296296296296],[1],[0],[0],[2.2069398999447003],['target'],1,001,2024-10-09_12h18.26.273,visualsearch,2024.1.5,None,2024-10-09 12h18.42.273730 +0530,
89,0,89,0,307.6137724999571,,307.53352119994815,10,307.6137724999571,307.6137724999571,0.04927489999681711,311.40773159998935,[0.3416666666666667],[0.12407407407407407],[1],[0],[0],[3.825812099967152],['target'],1,001,2024-10-09_12h18.26.273,visualsearch,2024.1.5,None,2024-10-09 12h18.42.273730 +0530,
90,0,90,0,311.47182219999377,,311.4117056999821,10,311.47182219999377,311.47182219999377,0.042721300036646426,316.49128159997053,[0.2722222222222222],[-0.020370370370370372],[1],[0],[0],[5.03781909996178],[],1,001,2024-10-09_12h18.26.273,visualsearch,2024.1.5,None,2024-10-09 12h18.42.273730 +0530,
91,0,91,0,316.5265422000084,,316.496663399972,5,316.5265422000084,316.5265422000084,0.021185100078582764,318.47450010001194,[0.2777777777777778],[0.15833333333333333],[1],[0],[0],[1.9574087000219151],['target'],1,001,2024-10-09_12h18.26.273,visualsearch,2024.1.5,None,2024-10-09 12h18.42.273730 +0530,
92,0,92,0,318.51267949992325,,318.4790809999686,5,318.51267949992325,318.51267949992325,0.022537300013937056,321.7243497999152,[-0.17222222222222222],[0.24259259259259258],[1],[0],[0],[3.2230145001085475],['target'],1,001,2024-10-09_12h18.26.273,visualsearch,2024.1.5,None,2024-10-09 12h18.42.273730 +0530,
93,0,93,0,321.76352819998283,,321.7300073999213,5,321.76352819998283,321.76352819998283,0.02084469993133098,325.5304554000031,[0.3416666666666667],[-0.07962962962962963],[1],[0],[0],[3.780315799987875],['target'],1,001,2024-10-09_12h18.26.273,visualsearch,2024.1.5,None,2024-10-09 12h18.42.273730 +0530,
94,0,94,0,325.5733480999479,,325.537587699946,5,325.5733480999479,325.5733480999479,0.024739899905398488,327.36102959990967,[0.075],[0.22870370370370371],[1],[0],[0],[1.7993423000443727],['target'],1,001,2024-10-09_12h18.26.273,visualsearch,2024.1.5,None,2024-10-09 12h18.42.273730 +0530,
95,0,95,0,327.4009274999844,,327.36673020001035,5,327.4009274999844,327.4009274999844,0.024067599908448756,329.9745544999605,[0.32314814814814813],[0.11388888888888889],[1],[0],[0],[2.5843543999362737],['target'],1,001,2024-10-09_12h18.26.273,visualsearch,2024.1.5,None,2024-10-09 12h18.42.273730 +0530,
96,0,96,0,330.01291469996795,,329.9790248000063,5,330.01291469996795,330.01291469996795,0.02327160001732409,333.6591041999636,[-0.412962962962963],[-0.3814814814814815],[1],[0],[0],[3.6567015999462456],['target'],1,001,2024-10-09_12h18.26.273,visualsearch,2024.1.5,None,2024-10-09 12h18.42.273730 +0530,
97,0,97,0,333.7273652999429,,333.6661655999487,10,333.7273652999429,333.7273652999429,0.04519029997754842,338.5413371999748,[0.4166666666666667],[0.41388888888888886],[1],[0],[0],[4.830492199980654],['target'],1,001,2024-10-09_12h18.26.273,visualsearch,2024.1.5,None,2024-10-09 12h18.42.273730 +0530,
98,0,98,0,338.5928172999993,,338.5465869999025,5,338.5928172999993,338.5928172999993,0.01714799995534122,340.50827859994024,[-0.24351851851851852],[-0.27870370370370373],[1],[0],[0],[1.9446502999635413],['target'],1,001,2024-10-09_12h18.26.273,visualsearch,2024.1.5,None,2024-10-09 12h18.42.273730 +0530,
99,0,99,0,340.5658042000141,,340.5130311999237,10,340.5658042000141,340.5658042000141,0.03947870002593845,343.27521839994006,[-0.36666666666666664],[0.325],[1],[0],[0],[2.722423000028357],['target'],1,001,2024-10-09_12h18.26.273,visualsearch,2024.1.5,None,2024-10-09 12h18.42.273730 +0530,
100,0,100,0,343.33897889999207,,343.28027059999295,10,343.33897889999207,343.33897889999207,0.04682769998908043,346.6428233999759,[-0.4462962962962963],[-0.475],[1],[0],[0],[3.315712400013581],['target'],1,001,2024-10-09_12h18.26.273,visualsearch,2024.1.5,None,2024-10-09 12h18.42.273730 +0530,
101,0,101,0,346.67629589990247,,346.65017239993904,5,346.67629589990247,346.67629589990247,0.019541300018317997,348.75859469990246,[0.06481481481481481],[-0.3416666666666667],[1],[0],[0],[2.0901313999202102],['target'],1,001,2024-10-09_12h18.26.273,visualsearch,2024.1.5,None,2024-10-09 12h18.42.273730 +0530,
102,0,102,0,348.79021629993804,,348.7640073999064,5,348.79021629993804,348.79021629993804,0.018855499918572605,351.12532709992956,[-0.4601851851851852],[-0.41574074074074074],[1],[0],[0],[2.342746799928136],['target'],1,001,2024-10-09_12h18.26.273,visualsearch,2024.1.5,None,2024-10-09 12h18.42.273730 +0530,
103,0,103,0,351.1556044999743,,351.12985739996657,5,351.1556044999743,351.1556044999743,0.01826369995251298,353.37523140001576,[-0.28425925925925927],[-0.09074074074074075],[1],[0],[0],[2.2272830998990685],['target'],1,001,2024-10-09_12h18.26.273,visualsearch,2024.1.5,None,2024-10-09 12h18.42.273730 +0530,
104,0,104,0,353.44340759993065,,353.3812245000154,10,353.44340759993065,353.44340759993065,0.04382140003144741,356.19140789995436,[0.046296296296296294],[0.35],[1],[0],[0],[2.76724189997185],['target'],1,001,2024-10-09_12h18.26.273,visualsearch,2024.1.5,None,2024-10-09 12h18.42.273730 +0530,
105,0,105,0,356.24500699993223,,356.1951649999246,10,356.24500699993223,356.24500699993223,0.03288159996736795,360.3079349999316,[0.34814814814814815],[0.3888888888888889],[1],[0],[0],[4.079958900110796],['target'],1,001,2024-10-09_12h18.26.273,visualsearch,2024.1.5,None,2024-10-09 12h18.42.273730 +0530,
106,0,106,0,360.3391751999734,,360.3137118999148,5,360.3391751999734,360.3391751999734,0.017862600041553378,365.39191799995024,[0.16018518518518518],[-0.4222222222222222],[1],[0],[0],[5.060865900013596],['target'],1,001,2024-10-09_12h18.26.273,visualsearch,2024.1.5,None,2024-10-09 12h18.42.273730 +0530,
107,0,107,0,365.4295901999576,,365.39678830001503,5,365.4295901999576,365.4295901999576,0.024057299946434796,367.36056479997933,[-0.06574074074074074],[0.04722222222222222],[1],[0],[0],[1.940071199904196],['target'],1,001,2024-10-09_12h18.26.273,visualsearch,2024.1.5,None,2024-10-09 12h18.42.273730 +0530,
108,0,108,0,367.43675389990676,,367.3650738999713,10,367.43675389990676,367.43675389990676,0.042350800009444356,369.1587213999592,[0.4203703703703704],[0.025925925925925925],[1],[0],[0],[1.7512269000289962],['target'],1,001,2024-10-09_12h18.26.273,visualsearch,2024.1.5,None,2024-10-09 12h18.42.273730 +0530,
109,0,109,0,369.2112546999706,,369.1635146999033,10,369.2112546999706,369.2112546999706,0.034696900052949786,374.6936894999817,[0.39814814814814814],[-0.4305555555555556],[1],[0],[0],[5.496564000030048],['target'],1,001,2024-10-09_12h18.26.273,visualsearch,2024.1.5,None,2024-10-09 12h18.42.273730 +0530,
110,0,110,0,374.773326799972,,374.7007261000108,10,374.773326799972,374.773326799972,0.05888940009754151,378.88491239992436,[0.3101851851851852],[0.49444444444444446],[1],[0],[0],[4.125714400084689],[],1,001,2024-10-09_12h18.26.273,visualsearch,2024.1.5,None,2024-10-09 12h18.42.273730 +0530,
111,0,111,0,378.96548389992677,,378.8915406999877,10,378.96548389992677,378.96548389992677,0.05584869999438524,381.9245771999704,[-0.3],[-0.4638888888888889],[1],[0],[0],[2.9776852999348193],['target'],1,001,2024-10-09_12h18.26.273,visualsearch,2024.1.5,None,2024-10-09 12h18.42.273730 +0530,
112,0,112,0,381.9538593000034,,381.9282119999407,5,381.9538593000034,381.9538593000034,0.016745900036767125,387.3270715000108,[0.4388888888888889],[-0.44074074074074077],[1],[0],[0],[5.381871300050989],['target'],1,001,2024-10-09_12h18.26.273,visualsearch,2024.1.5,None,2024-10-09 12h18.42.273730 +0530,
113,0,113,0,387.38850180001464,,387.33249659999274,10,387.38850180001464,387.38850180001464,0.03787330002523959,394.25980889995117,[-0.35648148148148145],[0.03148148148148148],[1],[0],[0],[6.889897000044584],['target'],1,001,2024-10-09_12h18.26.273,visualsearch,2024.1.5,None,2024-10-09 12h18.42.273730 +0530,
114,0,114,0,394.31582939997315,,394.26274729997385,10,394.31582939997315,394.31582939997315,0.0377153999870643,398.991039799992,[-0.27314814814814814],[0.32592592592592595],[1],[0],[0],[4.690640000044368],['target'],1,001,2024-10-09_12h18.26.273,visualsearch,2024.1.5,None,2024-10-09 12h18.42.273730 +0530,
115,0,115,0,399.04966239992063,,398.994207700016,10,399.04966239992063,399.04966239992063,0.03887889999896288,401.75993159995414,[-0.12129629629629629],[0.375],[1],[0],[0],[2.726058100000955],['target'],1,001,2024-10-09_12h18.26.273,visualsearch,2024.1.5,None,2024-10-09 12h18.42.273730 +0530,
116,0,116,0,401.82347820000723,,401.76492709992453,10,401.82347820000723,401.82347820000723,0.0450499999569729,404.5581352999434,[-0.32314814814814813],[-0.425],[1],[0],[0],[2.7483094000490382],['target'],1,001,2024-10-09_12h18.26.273,visualsearch,2024.1.5,None,2024-10-09 12h18.42.273730 +0530,
117,0,117,0,404.5911061000079,,404.5628712999169,5,404.5911061000079,404.5911061000079,0.019483500043861568,406.8287922999589,[0.45925925925925926],[-0.36018518518518516],[1],[0],[0],[2.246375299990177],['target'],1,001,2024-10-09_12h18.26.273,visualsearch,2024.1.5,None,2024-10-09 12h18.42.273730 +0530,
118,0,118,0,406.8644110999303,,406.83358789992053,5,406.8644110999303,406.8644110999303,0.020162499975413084,410.4754517999245,[-0.30462962962962964],[-0.11666666666666667],[1],[0],[0],[3.621771400095895],['target'],1,001,2024-10-09_12h18.26.273,visualsearch,2024.1.5,None,2024-10-09 12h18.42.273730 +0530,
119,0,119,0,410.5103383999085,,410.4810260999948,5,410.5103383999085,410.5103383999085,0.020978600019589067,413.82521599996835,[0.44814814814814813],[0.21666666666666667],[1],[0],[0],[3.3238132999977097],['target'],1,001,2024-10-09_12h18.26.273,visualsearch,2024.1.5,None,2024-10-09 12h18.42.273730 +0530,
120,0,120,0,413.8852956999326,,413.83028629992623,10,413.8852956999326,413.8852956999326,0.03881970001384616,416.97561620001215,[-0.04722222222222222],[-0.1962962962962963],[1],[0],[0],[3.106792900012806],['target'],1,001,2024-10-09_12h18.26.273,visualsearch,2024.1.5,None,2024-10-09 12h18.42.273730 +0530,
121,0,121,0,417.0343129999237,,416.98020270001143,10,417.0343129999237,417.0343129999237,0.03585690003819764,419.09218169993255,[-0.04814814814814815],[-0.30833333333333335],[1],[0],[0],[2.076276799896732],['target'],1,001,2024-10-09_12h18.26.273,visualsearch,2024.1.5,None,2024-10-09 12h18.42.273730 +0530,
122,0,122,0,419.124822499929,,419.0954630000051,5,419.124822499929,419.124822499929,0.017717299982905388,421.20985719992314,[0.4787037037037037],[0.18888888888888888],[1],[0],[0],[2.096176299965009],['target'],1,001,2024-10-09_12h18.26.273,visualsearch,2024.1.5,None,2024-10-09 12h18.42.273730 +0530,
123,0,123,0,421.2684504999779,,421.21520330000203,10,421.2684504999779,421.2684504999779,0.039469300070777535,425.7086516999407,[-0.32407407407407407],[0.4666666666666667],[1],[0],[0],[4.454189499956556],['target'],1,001,2024-10-09_12h18.26.273,visualsearch,2024.1.5,None,2024-10-09 12h18.42.273730 +0530,
124,0,124,0,425.7582933999365,,425.7120918999426,10,425.7582933999365,425.7582933999365,0.03403979993890971,429.5595876999432,[-0.30277777777777776],[0.16296296296296298],[1],[0],[0],[3.8135577000211924],['target'],1,001,2024-10-09_12h18.26.273,visualsearch,2024.1.5,None,2024-10-09 12h18.42.273730 +0530,
125,0,125,0,429.6194562999299,,429.5642530999612,10,429.6194562999299,429.6194562999299,0.04113220004364848,433.2274189000018,[-0.1],[-0.4675925925925926],[1],[0],[0],[3.62200670002494],['target'],1,001,2024-10-09_12h18.26.273,visualsearch,2024.1.5,None,2024-10-09 12h18.42.273730 +0530,
126,0,126,0,433.25941279996186,,433.2319687999552,5,433.25941279996186,433.25941279996186,0.018515900010243058,439.27620799990837,[-0.4898148148148148],[0.10277777777777777],[1],[0],[0],[6.025464399950579],['target'],1,001,2024-10-09_12h18.26.273,visualsearch,2024.1.5,None,2024-10-09 12h18.42.273730 +0530,
127,0,127,0,439.3299111999804,,439.2819114999147,10,439.3299111999804,439.3299111999804,0.03530540002975613,441.9243498999858,[0.04814814814814815],[0.46944444444444444],[1],[0],[0],[2.6076393999392167],['target'],1,001,2024-10-09_12h18.26.273,visualsearch,2024.1.5,None,2024-10-09 12h18.42.273730 +0530,
128,0,128,0,441.95367799990345,,441.92775929998606,5,441.95367799990345,441.95367799990345,0.017265199916437268,443.85831609996967,[-0.33055555555555555],[-0.39351851851851855],[1],[0],[0],[1.9133500999305397],['target'],1,001,2024-10-09_12h18.26.273,visualsearch,2024.1.5,None,2024-10-09 12h18.42.273730 +0530,
129,0,129,0,443.8881670999108,,443.8629732999252,5,443.8881670999108,443.8881670999108,0.016977400053292513,447.4915235999506,[-0.3212962962962963],[0.08333333333333333],[1],[0],[0],[3.6116135999327525],['target'],1,001,2024-10-09_12h18.26.273,visualsearch,2024.1.5,None,2024-10-09 12h18.42.273730 +0530,
130,0,130,0,447.52514339995105,,447.4965576999821,5,447.52514339995105,447.52514339995105,0.020368200028315187,449.5128664999502,[-0.018518518518518517],[-0.05555555555555555],[1],[0],[0],[1.9959671000251547],['target'],1,001,2024-10-09_12h18.26.273,visualsearch,2024.1.5,None,2024-10-09 12h18.42.273730 +0530,
131,0,131,0,449.5488379999297,,449.51945889997296,5,449.5488379999297,449.5488379999297,0.021069200010970235,453.1598578999983,[-0.025],[0.3148148148148148],[1],[0],[0],[3.62010719999671],['target'],1,001,2024-10-09_12h18.26.273,visualsearch,2024.1.5,None,2024-10-09 12h18.42.273730 +0530,
132,0,132,0,453.1921078999294,,453.1660323999822,5,453.1921078999294,453.1921078999294,0.01949970005080104,457.22592120000627,[-0.11666666666666667],[-0.4148148148148148],[1],[0],[0],[4.041385599994101],['target'],1,001,2024-10-09_12h18.26.273,visualsearch,2024.1.5,None,2024-10-09 12h18.42.273730 +0530,
133,0,133,0,457.26868689991534,,457.23272909992374,5,457.26868689991534,457.26868689991534,0.028335099923424423,459.26270570000634,[0.23796296296296296],[-0.037037037037037035],[1],[0],[0],[2.0018441999563947],['target'],1,001,2024-10-09_12h18.26.273,visualsearch,2024.1.5,None,2024-10-09 12h18.42.273730 +0530,
134,0,134,0,459.2987370999763,,459.2684241000097,5,459.2987370999763,459.2987370999763,0.019261099980212748,461.79126899992116,[0.23703703703703705],[0.3055555555555556],[1],[0],[0],[2.503876099945046],['target'],1,001,2024-10-09_12h18.26.273,visualsearch,2024.1.5,None,2024-10-09 12h18.42.273730 +0530,
135,0,135,0,461.82472829998005,,461.7949996999232,5,461.82472829998005,461.82472829998005,0.019471800071187317,464.2247560999822,[-0.19722222222222222],[0.35462962962962963],[1],[0],[0],[2.4104917000513524],['target'],1,001,2024-10-09_12h18.26.273,visualsearch,2024.1.5,None,2024-10-09 12h18.42.273730 +0530,
136,0,136,0,464.2561946999049,,464.22838089999277,5,464.2561946999049,464.2561946999049,0.01835569995455444,466.20900569995865,[-0.16296296296296298],[0.012037037037037037],[1],[0],[0],[1.9618416000157595],['target'],1,001,2024-10-09_12h18.26.273,visualsearch,2024.1.5,None,2024-10-09 12h18.42.273730 +0530,
137,0,137,0,466.27220429992303,,466.21580969996285,10,466.27220429992303,466.27220429992303,0.04141850001178682,468.80994959990494,[0.36944444444444446],[-0.23981481481481481],[1],[0],[0],[2.552290300023742],['target'],1,001,2024-10-09_12h18.26.273,visualsearch,2024.1.5,None,2024-10-09 12h18.42.273730 +0530,
138,0,138,0,468.87160919990856,,468.81363539991435,10,468.87160919990856,468.87160919990856,0.041774600045755506,471.90832980000414,[-0.18518518518518517],[-0.022222222222222223],[1],[0],[0],[3.0528828999958932],['target'],1,001,2024-10-09_12h18.26.273,visualsearch,2024.1.5,None,2024-10-09 12h18.42.273730 +0530,
139,0,139,0,471.9637712999247,,471.9123247999232,10,471.9637712999247,471.9637712999247,0.034903099993243814,476.1937242000131,[0.4083333333333333],[0.4222222222222222],[1],[0],[0],[4.246452099992894],['target'],1,001,2024-10-09_12h18.26.273,visualsearch,2024.1.5,None,2024-10-09 12h18.42.273730 +0530,
140,0,140,0,476.25524659990333,,476.1996545000002,10,476.25524659990333,476.25524659990333,0.038130000000819564,478.3939045999432,[0.3277777777777778],[0.19722222222222222],[1],[0],[0],[2.1571961999870837],['target'],1,001,2024-10-09_12h18.26.273,visualsearch,2024.1.5,None,2024-10-09 12h18.42.273730 +0530,
141,0,141,0,478.46686139993835,,478.3974314999068,10,478.46686139993835,478.46686139993835,0.04910770000424236,480.44144289998803,[-0.34814814814814815],[-0.053703703703703705],[1],[0],[0],[1.9951637999620289],['target'],1,001,2024-10-09_12h18.26.273,visualsearch,2024.1.5,None,2024-10-09 12h18.42.273730 +0530,
142,0,142,0,480.49467759998515,,480.4450733999256,10,480.49467759998515,480.49467759998515,0.03226480004377663,483.74231639993377,[0.11296296296296296],[0.20462962962962963],[1],[0],[0],[3.264349600067362],['target'],1,001,2024-10-09_12h18.26.273,visualsearch,2024.1.5,None,2024-10-09 12h18.42.273730 +0530,
143,0,143,0,483.776604799903,,483.74706490000244,5,483.776604799903,483.776604799903,0.019516900065355003,486.24193669995293,[-0.4861111111111111],[-0.29074074074074074],[1],[0],[0],[2.4752759999828413],['target'],1,001,2024-10-09_12h18.26.273,visualsearch,2024.1.5,None,2024-10-09 12h18.42.273730 +0530,
144,0,144,0,486.29322140000295,,486.2454409999773,10,486.29322140000295,486.29322140000295,0.03430940001271665,489.458900299971,[-0.2861111111111111],[0.46111111111111114],[1],[0],[0],[3.1788375000469387],['target'],1,001,2024-10-09_12h18.26.273,visualsearch,2024.1.5,None,2024-10-09 12h18.42.273730 +0530,
145,0,145,0,489.4918225000147,,489.46395439992193,5,489.4918225000147,489.4918225000147,0.01944289996754378,495.9751844999846,[-0.2972222222222222],[0.40370370370370373],[1],[0],[0],[6.492351300083101],['target'],1,001,2024-10-09_12h18.26.273,visualsearch,2024.1.5,None,2024-10-09 12h18.42.273730 +0530,
146,0,146,0,496.0334060000023,,495.98012690001633,10,496.0334060000023,496.0334060000023,0.034409399959258735,499.6268381999107,[-0.08981481481481482],[0.007407407407407408],[1],[0],[0],[3.6124247999396175],[],1,001,2024-10-09_12h18.26.273,visualsearch,2024.1.5,None,2024-10-09 12h18.42.273730 +0530,
147,0,147,0,499.67310509993695,,499.6310289999237,10,499.67310509993695,499.67310509993695,0.032133699976839125,502.75852669996675,[0.25462962962962965],[-0.4166666666666667],[1],[0],[0],[3.095500500057824],['target'],1,001,2024-10-09_12h18.26.273,visualsearch,2024.1.5,None,2024-10-09 12h18.42.273730 +0530,
148,0,148,0,502.7849434999516,,502.7628668999532,5,502.7849434999516,502.7849434999516,0.01535659993533045,505.32668379996903,[0.032407407407407406],[0.41203703703703703],[1],[0],[0],[2.549005900043994],['target'],1,001,2024-10-09_12h18.26.273,visualsearch,2024.1.5,None,2024-10-09 12h18.42.273730 +0530,
149,0,149,0,505.3593423999846,,505.33100989996456,5,505.3593423999846,505.3593423999846,0.020499999984167516,506.9091513999738,[0.12129629629629629],[-0.1037037037037037],[1],[0],[0],[1.5579250999726355],['target'],1,001,2024-10-09_12h18.26.273,visualsearch,2024.1.5,None,2024-10-09 12h18.42.273730 +0530,
150,0,150,0,506.9487328999676,,506.91563519998454,5,506.9487328999676,506.9487328999676,0.020388000062666833,509.75827549991664,[0.20092592592592592],[0.41944444444444445],[1],[0],[0],[2.8227963999379426],['target'],1,001,2024-10-09_12h18.26.273,visualsearch,2024.1.5,None,2024-10-09 12h18.42.273730 +0530,
151,0,151,0,509.79049309995025,,509.7628540999722,5,509.79049309995025,509.79049309995025,0.02055580005981028,511.0747157000005,[-0.1361111111111111],[0.05740740740740741],[1],[0],[0],[1.29155449999962],['target'],1,001,2024-10-09_12h18.26.273,visualsearch,2024.1.5,None,2024-10-09 12h18.42.273730 +0530,
152,0,152,0,511.1077630999498,,511.08061179996,5,511.1077630999498,511.1077630999498,0.01991849998012185,512.9250383999897,[-0.3648148148148148],[0.4546296296296296],[1],[0],[0],[1.8251530999550596],[],1,001,2024-10-09_12h18.26.273,visualsearch,2024.1.5,None,2024-10-09 12h18.42.273730 +0530,
153,0,153,0,512.9701606999151,,512.9285105000017,10,512.9701606999151,512.9701606999151,0.029970300034619868,514.4098987999605,[-0.13796296296296295],[0.1388888888888889],[1],[0],[0],[1.4514554999768734],['target'],1,001,2024-10-09_12h18.26.273,visualsearch,2024.1.5,None,2024-10-09 12h18.42.273730 +0530,
154,0,154,0,514.4403280999977,,514.4147892999463,5,514.4403280999977,514.4403280999977,0.01725210004951805,516.291351199965,[-0.14537037037037037],[-0.17962962962962964],[1],[0],[0],[1.8596867000451311],['target'],1,001,2024-10-09_12h18.26.273,visualsearch,2024.1.5,None,2024-10-09 12h18.42.273730 +0530,
155,0,155,0,516.3244111000095,,516.294645799906,5,516.3244111000095,516.3244111000095,0.019212599960155785,517.9420737999026,[-0.27685185185185185],[0.39166666666666666],[1],[0],[0],[1.628451899974607],['target'],1,001,2024-10-09_12h18.26.273,visualsearch,2024.1.5,None,2024-10-09 12h18.42.273730 +0530,
156,0,156,0,517.9910331999417,,517.9449400999583,10,517.9910331999417,517.9910331999417,0.03196460008621216,520.3422584999353,[-0.47685185185185186],[-0.17037037037037037],[1],[0],[0],[2.365278400015086],['target'],1,001,2024-10-09_12h18.26.273,visualsearch,2024.1.5,None,2024-10-09 12h18.42.273730 +0530,
157,0,157,0,520.3714767999481,,520.3466753999237,5,520.3714767999481,520.3714767999481,0.016931600053794682,522.5086261999095,[0.44907407407407407],[0.48518518518518516],[1],[0],[0],[2.1455236999318004],[],1,001,2024-10-09_12h18.26.273,visualsearch,2024.1.5,None,2024-10-09 12h18.42.273730 +0530,
158,0,158,0,522.5426253000041,,522.5131932999939,5,522.5426253000041,522.5426253000041,0.018224900006316602,525.443453899934,[0.4074074074074074],[-0.45740740740740743],[1],[0],[0],[2.9121229000156745],['target'],1,001,2024-10-09_12h18.26.273,visualsearch,2024.1.5,None,2024-10-09 12h18.42.273730 +0530,
159,0,159,0,525.4800559999421,,525.4479582000058,5,525.4800559999421,525.4800559999421,0.022353500011377037,526.8762045999756,[0.44351851851851853],[-0.44722222222222224],[1],[0],[0],[1.4061514000641182],['target'],1,001,2024-10-09_12h18.26.273,visualsearch,2024.1.5,None,2024-10-09 12h18.42.273730 +0530,
160,0,160,0,526.9240544999484,,526.8818605999695,10,526.9240544999484,526.9240544999484,0.029950099997222424,528.2253964999691,[0.18888888888888888],[0.21851851851851853],[1],[0],[0],[1.313956500031054],['target'],1,001,2024-10-09_12h18.26.273,visualsearch,2024.1.5,None,2024-10-09 12h18.42.273730 +0530,
161,0,161,0,528.2717449999182,,528.2292601999361,10,528.2717449999182,528.2717449999182,0.02995800005737692,529.9749221999664,[-0.2212962962962963],[-0.24351851851851852],[1],[0],[0],[1.7155922000529245],['target'],1,001,2024-10-09_12h18.26.273,visualsearch,2024.1.5,None,2024-10-09 12h18.42.273730 +0530,
162,0,162,0,530.0049839999992,,529.979940899997,5,530.0049839999992,530.0049839999992,0.016747400048188865,531.5582590999547,[-0.15462962962962962],[0.18055555555555555],[1],[0],[0],[1.562026200001128],['target'],1,001,2024-10-09_12h18.26.273,visualsearch,2024.1.5,None,2024-10-09 12h18.42.273730 +0530,
163,0,163,0,531.6089000999928,,531.5623498999048,10,531.6089000999928,531.6089000999928,0.033933899947442114,533.2931519999402,[0.1962962962962963],[-0.07037037037037037],[1],[0],[0],[1.6970508999656886],[],1,001,2024-10-09_12h18.26.273,visualsearch,2024.1.5,None,2024-10-09 12h18.42.273730 +0530,
164,0,164,0,533.3287649999838,,533.2991975999903,5,533.3287649999838,533.3287649999838,0.0188402000349015,535.059998499928,[-0.030555555555555555],[-0.4148148148148148],[1],[0],[0],[1.7427276999223977],['target'],1,001,2024-10-09_12h18.26.273,visualsearch,2024.1.5,None,2024-10-09 12h18.42.273730 +0530,
165,0,165,0,535.0917240999406,,535.0655430000043,5,535.0917240999406,535.0917240999406,0.01788289996329695,536.9913682999322,[-0.18425925925925926],[0.28055555555555556],[1],[0],[0],[1.9085569999879226],['target'],1,001,2024-10-09_12h18.26.273,visualsearch,2024.1.5,None,2024-10-09 12h18.42.273730 +0530,
166,0,166,0,537.0449149999768,,536.9951884999173,10,537.0449149999768,537.0449149999768,0.03394830005709082,538.7579243999207,[-0.31574074074074077],[-0.08981481481481482],[1],[0],[0],[1.7289042000193149],['target'],1,001,2024-10-09_12h18.26.273,visualsearch,2024.1.5,None,2024-10-09 12h18.42.273730 +0530,
167,0,167,0,538.8031414999859,,538.7626083999639,5,538.8031414999859,538.8031414999859,0.03251569997519255,540.1764540999429,[-0.44722222222222224],[-0.022222222222222223],[1],[0],[0],[1.381444999948144],['target'],1,001,2024-10-09_12h18.26.273,visualsearch,2024.1.5,None,2024-10-09 12h18.42.273730 +0530,
168,0,168,0,540.2280984999379,,540.1837419999065,10,540.2280984999379,540.2280984999379,0.03415239998139441,541.1761887000175,[-0.3398148148148148],[0.17314814814814813],[1],[0],[0],[0.9588722001062706],[],1,001,2024-10-09_12h18.26.273,visualsearch,2024.1.5,None,2024-10-09 12h18.42.273730 +0530,
169,0,169,0,541.2294819999952,,541.1800445999252,10,541.2294819999952,541.2294819999952,0.0315654999576509,542.525145499967,[0.027777777777777776],[0.16111111111111112],[1],[0],[0],[1.3135157000506297],['target'],1,001,2024-10-09_12h18.26.273,visualsearch,2024.1.5,None,2024-10-09 12h18.42.273730 +0530,
170,0,170,0,542.5586110999575,,542.5307861999609,5,542.5586110999575,542.5586110999575,0.01814570010174066,543.9088890999556,[-0.25925925925925924],[0.3787037037037037],[1],[0],[0],[1.3597865999909118],['target'],1,001,2024-10-09_12h18.26.273,visualsearch,2024.1.5,None,2024-10-09 12h18.42.273730 +0530,
171,0,171,0,543.9647221999476,,543.9131134999916,10,543.9647221999476,543.9647221999476,0.03407339996192604,544.89138549997,[-0.15648148148148147],[0.2462962962962963],[1],[0],[0],[0.9444698999868706],[],1,001,2024-10-09_12h18.26.273,visualsearch,2024.1.5,None,2024-10-09 12h18.42.273730 +0530,
172,0,172,0,544.9536945999134,,544.8944877999602,10,544.9536945999134,544.9536945999134,0.043148100026883185,546.1094791999785,[0.1712962962962963],[0.3074074074074074],[1],[0],[0],[1.1717950999736786],[],1,001,2024-10-09_12h18.26.273,visualsearch,2024.1.5,None,2024-10-09 12h18.42.273730 +0530,
173,0,173,0,546.1397637999617,,546.11262359994,5,546.1397637999617,546.1397637999617,0.016925000003539026,547.4597759000026,[0.06481481481481481],[0.18981481481481483],[1],[0],[0],[1.3301365000661463],[],1,001,2024-10-09_12h18.26.273,visualsearch,2024.1.5,None,2024-10-09 12h18.42.273730 +0530,
174,0,174,0,547.5246346999193,,547.4647878999822,10,547.5246346999193,547.5246346999193,0.039502999978139997,548.7580902999034,[-0.32592592592592595],[-0.1824074074074074],[1],[0],[0],[1.2540993000147864],[],1,001,2024-10-09_12h18.26.273,visualsearch,2024.1.5,None,2024-10-09 12h18.42.273730 +0530,
175,0,175,0,548.8056807999965,,548.7644067999208,10,548.8056807999965,548.8056807999965,0.03084090002812445,551.01023419993,[-0.08796296296296297],[-0.39814814814814814],[1],[0],[0],[2.215464000008069],['target'],1,001,2024-10-09_12h18.26.273,visualsearch,2024.1.5,None,2024-10-09 12h18.42.273730 +0530,
176,0,176,0,551.0652830000035,,551.0172364999307,10,551.0652830000035,551.0652830000035,0.036377300042659044,552.6584482999751,[0.12962962962962962],[-0.45185185185185184],[1],[0],[0],[1.60544369998388],['target'],1,001,2024-10-09_12h18.26.273,visualsearch,2024.1.5,None,2024-10-09 12h18.42.273730 +0530,
177,0,177,0,552.6894994999748,,552.6624526999658,5,552.6894994999748,552.6894994999748,0.01603529998101294,553.8590782999527,[0.2953703703703704],[-0.27037037037037037],[1],[0],[0],[1.1804152000695467],['target'],1,001,2024-10-09_12h18.26.273,visualsearch,2024.1.5,None,2024-10-09 12h18.42.273730 +0530,
178,0,178,0,553.8889198999386,,553.8633650999982,5,553.8889198999386,553.8889198999386,0.016850499901920557,555.7105319999391,[0.3111111111111111],[0.1537037037037037],[1],[0],[0],[1.8304021999938414],['target'],1,001,2024-10-09_12h18.26.273,visualsearch,2024.1.5,None,2024-10-09 12h18.42.273730 +0530,
179,0,179,0,555.7710545000155,,555.7148617999628,10,555.7710545000155,555.7710545000155,0.039420299930498004,558.4912640999537,[-0.14722222222222223],[0.3925925925925926],[1],[0],[0],[2.7373251999961212],['target'],1,001,2024-10-09_12h18.26.273,visualsearch,2024.1.5,None,2024-10-09 12h18.42.273730 +0530,
180,0,180,0,558.5229617999867,,558.4954914000118,5,558.5229617999867,558.5229617999867,0.016303100041113794,560.1084556999849,[-0.025925925925925925],[-0.24259259259259258],[1],[0],[0],[1.5966347999637946],['target'],1,001,2024-10-09_12h18.26.273,visualsearch,2024.1.5,None,2024-10-09 12h18.42.273730 +0530,
181,0,181,0,560.1429220999125,,560.113252399955,5,560.1429220999125,560.1429220999125,0.017658199998550117,562.1917967000045,[-0.2814814814814815],[0.29259259259259257],[1],[0],[0],[2.0610818000277504],['target'],1,001,2024-10-09_12h18.26.273,visualsearch,2024.1.5,None,2024-10-09 12h18.42.273730 +0530,
182,0,182,0,562.2221845999593,,562.1972493999638,5,562.2221845999593,562.2221845999593,0.01816770003642887,563.9583515999839,[-0.2851851851851852],[-0.44074074074074077],[1],[0],[0],[1.7432191000552848],['target'],1,001,2024-10-09_12h18.26.273,visualsearch,2024.1.5,None,2024-10-09 12h18.42.273730 +0530,
183,0,183,0,563.9856039999286,,563.9624242999125,5,563.9856039999286,563.9856039999286,0.015499299974180758,566.5916203999659,[-0.1935185185185185],[-0.021296296296296296],[1],[0],[0],[2.6138515999773517],['target'],1,001,2024-10-09_12h18.26.273,visualsearch,2024.1.5,None,2024-10-09 12h18.42.273730 +0530,
184,0,184,0,566.6203787999693,,566.5958081999561,5,566.6203787999693,566.6203787999693,0.01488109992351383,570.2767690999899,[-0.12037037037037036],[-0.20092592592592592],[1],[0],[0],[3.666006999905221],['target'],1,001,2024-10-09_12h18.26.273,visualsearch,2024.1.5,None,2024-10-09 12h18.42.273730 +0530,
185,0,185,0,570.3076554000145,,570.2825561999343,5,570.3076554000145,570.3076554000145,0.01760450005531311,575.6753989999415,[0.375],[0.16574074074074074],[1],[0],[0],[5.375500799971633],['target'],1,001,2024-10-09_12h18.26.273,visualsearch,2024.1.5,None,2024-10-09 12h18.42.273730 +0530,
186,0,186,0,575.7081974999746,,575.6803500999231,5,575.7081974999746,575.7081974999746,0.018222899991087615,577.8749748999253,[-0.4212962962962963],[-0.2861111111111111],[1],[0],[0],[2.176673599984497],['target'],1,001,2024-10-09_12h18.26.273,visualsearch,2024.1.5,None,2024-10-09 12h18.42.273730 +0530,
187,0,187,0,577.9088700999273,,577.8802085999632,5,577.9088700999273,577.9088700999273,0.020948000019416213,579.6249558000127,[0.08333333333333333],[0.23333333333333334],[1],[0],[0],[1.7240112000145018],['target'],1,001,2024-10-09_12h18.26.273,visualsearch,2024.1.5,None,2024-10-09 12h18.42.273730 +0530,
188,0,188,0,579.67710849992,,579.6299384000013,10,579.67710849992,579.67710849992,0.03431520005688071,581.4600121999392,[-0.15462962962962962],[0.2814814814814815],[1],[0],[0],[1.79593079991173],['target'],1,001,2024-10-09_12h18.26.273,visualsearch,2024.1.5,None,2024-10-09 12h18.42.273730 +0530,
189,0,189,0,581.49645649991,,581.466198500013,5,581.49645649991,581.49645649991,0.021441600052639842,583.4935529999202,[0.15092592592592594],[-0.2],[1],[0],[0],[2.006641500047408],['target'],1,001,2024-10-09_12h18.26.273,visualsearch,2024.1.5,None,2024-10-09 12h18.42.273730 +0530,
190,0,190,0,583.5271779999603,,583.4981321999803,5,583.5271779999603,583.5271779999603,0.021436400013044477,585.4582436999772,[0.45925925925925926],[-0.13055555555555556],[1],[0],[0],[1.939003900042735],['target'],1,001,2024-10-09_12h18.26.273,visualsearch,2024.1.5,None,2024-10-09 12h18.42.273730 +0530,
191,0,191,0,585.4855051999912,,585.461541299941,5,585.4855051999912,585.4855051999912,0.016104300040751696,586.6751024000114,[0.05462962962962963],[0.19444444444444445],[1],[0],[0],[1.1972866000141948],['target'],1,001,2024-10-09_12h18.26.273,visualsearch,2024.1.5,None,2024-10-09 12h18.42.273730 +0530,
192,0,192,0,586.7066269000061,,586.6792522999458,5,586.7066269000061,586.7066269000061,0.019790700054727495,588.1249273999128,[-0.19166666666666668],[0.27685185185185185],[1],[0],[0],[1.4261245999950916],['target'],1,001,2024-10-09_12h18.26.273,visualsearch,2024.1.5,None,2024-10-09 12h18.42.273730 +0530,
193,0,193,0,588.1593836999964,,588.1299262999091,5,588.1593836999964,588.1593836999964,0.021024700021371245,589.5101273999317,[-0.49722222222222223],[0.12037037037037036],[1],[0],[0],[1.3594113000435755],['target'],1,001,2024-10-09_12h18.26.273,visualsearch,2024.1.5,None,2024-10-09 12h18.42.273730 +0530,
194,0,194,0,589.5672074999893,,589.5153617999749,10,589.5672074999893,589.5672074999893,0.03824439994059503,592.3600299999816,[0.33055555555555555],[-0.2388888888888889],[1],[0],[0],[2.806910799932666],['target'],1,001,2024-10-09_12h18.26.273,visualsearch,2024.1.5,None,2024-10-09 12h18.42.273730 +0530,
195,0,195,0,592.4081291999901,,592.3644244999159,10,592.4081291999901,592.4081291999901,0.0318260999629274,594.5089451000094,[-0.48148148148148145],[0.35555555555555557],[1],[0],[0],[2.113257299992256],['target'],1,001,2024-10-09_12h18.26.273,visualsearch,2024.1.5,None,2024-10-09 12h18.42.273730 +0530,
196,0,196,0,594.5396136000054,,594.5139987999573,5,594.5396136000054,594.5396136000054,0.01719849999062717,596.1251760999439,[-0.46944444444444444],[-0.21296296296296297],[1],[0],[0],[1.5942724000196904],['target'],1,001,2024-10-09_12h18.26.273,visualsearch,2024.1.5,None,2024-10-09 12h18.42.273730 +0530,
197,0,197,0,596.1564431999577,,596.129321699962,5,596.1564431999577,596.1564431999577,0.019028100068680942,597.758412099909,[-0.28425925925925927],[0.12407407407407407],[1],[0],[0],[1.6102462999988347],['target'],1,001,2024-10-09_12h18.26.273,visualsearch,2024.1.5,None,2024-10-09 12h18.42.273730 +0530,
198,0,198,0,597.792612799909,,597.7623750999337,5,597.792612799909,597.792612799909,0.018753600073978305,599.3249049999285,[0.44351851851851853],[-0.3037037037037037],[1],[0],[0],[1.5439408000092953],['target'],1,001,2024-10-09_12h18.26.273,visualsearch,2024.1.5,None,2024-10-09 12h18.42.273730 +0530,
199,0,199,0,599.3766849999083,,599.3292612999212,10,599.3766849999083,599.3766849999083,0.03210299997590482,601.2583117999602,[-0.39351851851851855],[0.03425925925925926],[1],[0],[0],[1.8971474999561906],['target'],1,001,2024-10-09_12h18.26.273,visualsearch,2024.1.5,None,2024-10-09 12h18.42.273730 +0530,
