trials.thisRepN,trials.thisTrialN,trials.thisN,trials.thisIndex,thisRow.t,notes,trial.started,num_distr,fixation.started,target.started,mouse.started,trial.stopped,mouse.x,mouse.y,mouse.leftButton,mouse.midButton,mouse.rightButton,mouse.time,mouse.clicked_name,participant,session,date,expName,psychopyVersion,frameRate,expStart,
0,0,0,0,0.10882730002049357,,0.0236942000919953,10,0.10882730002049357,0.10882730002049357,0.08329789992421865,3.6372783000115305,[-0.25],[-0.1962962962962963],[1],[0],[0],[3.552900299895555],['target'],2,001,2024-10-09_12h33.06.000,visualsearch,2024.1.5,None,2024-10-09 12h33.16.863421 +0530,
1,0,1,0,3.6697730000596493,,3.645415300037712,5,3.6697730000596493,3.6697730000596493,0.016663199989125133,5.779921200009994,[-0.0824074074074074],[-0.18796296296296297],[1],[0],[0],[2.11838739993982],['target'],2,001,2024-10-09_12h33.06.000,visualsearch,2024.1.5,None,2024-10-09 12h33.16.863421 +0530,
2,0,2,0,5.820927400025539,,5.7873634999850765,5,5.820927400025539,5.820927400025539,0.026822400046512485,7.8117906000697985,[0.1787037037037037],[-0.47962962962962963],[1],[0],[0],[1.9983947000000626],['target'],2,001,2024-10-09_12h33.06.000,visualsearch,2024.1.5,None,2024-10-09 12h33.16.863421 +0530,
3,0,3,0,7.860257500084117,,7.816027700086124,10,7.860257500084117,7.860257500084117,0.03427369997370988,11.479653600021265,[-0.4527777777777778],[-0.023148148148148147],[1],[0],[0],[3.629535299958661],['target'],2,001,2024-10-09_12h33.06.000,visualsearch,2024.1.5,None,2024-10-09 12h33.16.863421 +0530,
4,0,4,0,11.52744720003102,,11.484879299998283,10,11.52744720003102,11.52744720003102,0.032231700024567544,13.1448821000522,[-0.42592592592592593],[0.2462962962962963],[1],[0],[0],[1.6278576999902725],['target'],2,001,2024-10-09_12h33.06.000,visualsearch,2024.1.5,None,2024-10-09 12h33.16.863421 +0530,
5,0,5,0,13.173135200049728,,13.149134000064805,5,13.173135200049728,13.173135200049728,0.017451100051403046,14.578201600001194,[-0.12314814814814815],[-0.07962962962962963],[1],[0],[0],[1.4118540999479592],['target'],2,001,2024-10-09_12h33.06.000,visualsearch,2024.1.5,None,2024-10-09 12h33.16.863421 +0530,
6,0,6,0,14.610453300061636,,14.583683800068684,5,14.610453300061636,14.610453300061636,0.01919989997986704,16.29492510005366,[-0.11203703703703703],[-0.09444444444444444],[1],[0],[0],[1.6922895000316203],['target'],2,001,2024-10-09_12h33.06.000,visualsearch,2024.1.5,None,2024-10-09 12h33.16.863421 +0530,
7,0,7,0,16.340597900096327,,16.29884150007274,10,16.340597900096327,16.340597900096327,0.029838399961590767,17.561376900062896,[0.4148148148148148],[0.23425925925925925],[1],[0],[0],[1.2329796999692917],[],2,001,2024-10-09_12h33.06.000,visualsearch,2024.1.5,None,2024-10-09 12h33.16.863421 +0530,
8,0,8,0,17.61253799998667,,17.56541969999671,10,17.61253799998667,17.61253799998667,0.03218219999689609,18.927910400088876,[-0.23703703703703705],[0.10555555555555556],[1],[0],[0],[1.3304623999865726],['target'],2,001,2024-10-09_12h33.06.000,visualsearch,2024.1.5,None,2024-10-09 12h33.16.863421 +0530,
9,0,9,0,18.95778500009328,,18.931165200076066,5,18.95778500009328,18.95778500009328,0.018720799940638244,20.31135530001484,[0.3037037037037037],[0.21666666666666667],[1],[0],[0],[1.3617179000284523],['target'],2,001,2024-10-09_12h33.06.000,visualsearch,2024.1.5,None,2024-10-09 12h33.16.863421 +0530,
10,0,10,0,20.340860399999656,,20.315631000092253,5,20.340860399999656,20.340860399999656,0.017163999960757792,21.546783300000243,[0.10185185185185185],[0.3175925925925926],[1],[0],[0],[1.2140146000310779],['target'],2,001,2024-10-09_12h33.06.000,visualsearch,2024.1.5,None,2024-10-09 12h33.16.863421 +0530,
11,0,11,0,21.57744270004332,,21.552074200008065,5,21.57744270004332,21.57744270004332,0.01827270002104342,22.865313600050285,[0.425],[-0.05092592592592592],[1],[0],[0],[1.2952533999923617],['target'],2,001,2024-10-09_12h33.06.000,visualsearch,2024.1.5,None,2024-10-09 12h33.16.863421 +0530,
12,0,12,0,22.916423300048336,,22.86971200001426,10,22.916423300048336,22.916423300048336,0.034566399990580976,25.210988800041378,[0.43148148148148147],[-0.4462962962962963],[1],[0],[0],[2.3072103000013158],['target'],2,001,2024-10-09_12h33.06.000,visualsearch,2024.1.5,None,2024-10-09 12h33.16.863421 +0530,
13,0,13,0,25.238038700073957,,25.214228100026958,5,25.238038700073957,25.238038700073957,0.016407000017352402,31.445143999997526,[-0.1537037037037037],[0.4888888888888889],[1],[0],[0],[6.214274800033309],['target'],2,001,2024-10-09_12h33.06.000,visualsearch,2024.1.5,None,2024-10-09 12h33.16.863421 +0530,
14,0,14,0,31.49489980004728,,31.44983689999208,10,31.49489980004728,31.49489980004728,0.033892299979925156,38.66125090001151,[0.21666666666666667],[0.40925925925925927],[1],[0],[0],[7.178013299941085],['target'],2,001,2024-10-09_12h33.06.000,visualsearch,2024.1.5,None,2024-10-09 12h33.16.863421 +0530,
15,0,15,0,38.71051550004631,,38.6648545000935,10,38.71051550004631,38.71051550004631,0.03519560000859201,47.19422280008439,[-0.4398148148148148],[-0.10277777777777777],[1],[0],[0],[8.49406210007146],['target'],2,001,2024-10-09_12h33.06.000,visualsearch,2024.1.5,None,2024-10-09 12h33.16.863421 +0530,
16,0,16,0,47.2446484999964,,47.200072700041346,10,47.2446484999964,47.2446484999964,0.03385170002002269,50.57793810009025,[-0.2574074074074074],[0.32222222222222224],[1],[0],[0],[3.3444101999048144],['target'],2,001,2024-10-09_12h33.06.000,visualsearch,2024.1.5,None,2024-10-09 12h33.16.863421 +0530,
17,0,17,0,50.62530610000249,,50.5822605000576,10,50.62530610000249,50.62530610000249,0.03199039993342012,55.34523060009815,[-0.4185185185185185],[-0.43796296296296294],[1],[0],[0],[4.731167700025253],['target'],2,001,2024-10-09_12h33.06.000,visualsearch,2024.1.5,None,2024-10-09 12h33.16.863421 +0530,
18,0,18,0,55.39354230009485,,55.35082819999661,10,55.39354230009485,55.39354230009485,0.03204009996261448,57.628248000051826,[0.004629629629629629],[-0.2037037037037037],[1],[0],[0],[2.2459078999236226],['target'],2,001,2024-10-09_12h33.06.000,visualsearch,2024.1.5,None,2024-10-09 12h33.16.863421 +0530,
19,0,19,0,57.67636780010071,,57.63334020006005,10,57.67636780010071,57.67636780010071,0.032467099954374135,60.49502850009594,[-0.1259259259259259],[-0.40925925925925927],[1],[0],[0],[2.829647700069472],['target'],2,001,2024-10-09_12h33.06.000,visualsearch,2024.1.5,None,2024-10-09 12h33.16.863421 +0530,
20,0,20,0,60.52258950006217,,60.498483600094914,5,60.52258950006217,60.52258950006217,0.016913800034672022,62.06197919999249,[0.2074074074074074],[-0.1],[1],[0],[0],[1.5465296000475064],['target'],2,001,2024-10-09_12h33.06.000,visualsearch,2024.1.5,None,2024-10-09 12h33.16.863421 +0530,
21,0,21,0,62.09224950009957,,62.068143100012094,5,62.09224950009957,62.09224950009957,0.017035599914379418,64.07847970002331,[0.27685185185185185],[0.45555555555555555],[1],[0],[0],[1.9933768999762833],['target'],2,001,2024-10-09_12h33.06.000,visualsearch,2024.1.5,None,2024-10-09 12h33.16.863421 +0530,
22,0,22,0,64.10869320004713,,64.08298920001835,5,64.10869320004713,64.10869320004713,0.019039100036025047,65.8471378000686,[0.22037037037037038],[-0.16203703703703703],[1],[0],[0],[1.7452515999320894],['target'],2,001,2024-10-09_12h33.06.000,visualsearch,2024.1.5,None,2024-10-09 12h33.16.863421 +0530,
23,0,23,0,65.88084650004748,,65.85277960007079,5,65.88084650004748,65.88084650004748,0.020580100012011826,68.1783238000935,[-0.4722222222222222],[0.2564814814814815],[1],[0],[0],[2.30521400005091],['target'],2,001,2024-10-09_12h33.06.000,visualsearch,2024.1.5,None,2024-10-09 12h33.16.863421 +0530,
24,0,24,0,68.23217430000659,,68.18357470002957,10,68.23217430000659,68.23217430000659,0.038068900001235306,69.58503419999033,[-0.44166666666666665],[0.3296296296296296],[1],[0],[0],[1.3639605999924242],['target'],2,001,2024-10-09_12h33.06.000,visualsearch,2024.1.5,None,2024-10-09 12h33.16.863421 +0530,
25,0,25,0,69.63112780009396,,69.58806440001354,10,69.63112780009396,69.63112780009396,0.031364800059236586,70.8112990000518,[-0.475],[0.275],[1],[0],[0],[1.1920024999417365],['target'],2,001,2024-10-09_12h33.06.000,visualsearch,2024.1.5,None,2024-10-09 12h33.16.863421 +0530,
26,0,26,0,70.84530540008564,,70.81681900005788,5,70.84530540008564,70.84530540008564,0.02041189989540726,73.09502750006504,[0.28703703703703703],[0.2074074074074074],[1],[0],[0],[2.25824539992027],['target'],2,001,2024-10-09_12h33.06.000,visualsearch,2024.1.5,None,2024-10-09 12h33.16.863421 +0530,
27,0,27,0,73.14342480001505,,73.09968410001602,10,73.14342480001505,73.14342480001505,0.03325800003949553,74.9461746000452,[-0.11388888888888889],[0.08055555555555556],[1],[0],[0],[1.8137942999601364],['target'],2,001,2024-10-09_12h33.06.000,visualsearch,2024.1.5,None,2024-10-09 12h33.16.863421 +0530,
28,0,28,0,75.01076990005095,,74.94955450005364,10,75.01076990005095,75.01076990005095,0.04730080009903759,87.54479539999738,[0.487962962962963],[0.40555555555555556],[1],[0],[0],[12.548010800033808],['target'],2,001,2024-10-09_12h33.06.000,visualsearch,2024.1.5,None,2024-10-09 12h33.16.863421 +0530,
29,0,29,0,87.593023500056,,87.55155880004168,10,87.593023500056,87.593023500056,0.03113439993467182,89.578368699993,[-0.46111111111111114],[-0.12685185185185185],[1],[0],[0],[1.9959638000000268],['target'],2,001,2024-10-09_12h33.06.000,visualsearch,2024.1.5,None,2024-10-09 12h33.16.863421 +0530,
30,0,30,0,89.60718809999526,,89.58345780009404,5,89.60718809999526,89.60718809999526,0.016843799967318773,91.29495160002261,[0.06481481481481481],[-0.03148148148148148],[1],[0],[0],[1.6948605000507087],['target'],2,001,2024-10-09_12h33.06.000,visualsearch,2024.1.5,None,2024-10-09 12h33.16.863421 +0530,
31,0,31,0,91.33104580000509,,91.30060489999596,5,91.33104580000509,91.33104580000509,0.021071499912068248,93.0787783000851,[0.3768518518518518],[0.2],[1],[0],[0],[1.7570232000434771],['target'],2,001,2024-10-09_12h33.06.000,visualsearch,2024.1.5,None,2024-10-09 12h33.16.863421 +0530,
32,0,32,0,93.10920390009414,,93.08355610002764,5,93.10920390009414,93.10920390009414,0.018620499991811812,95.01345520000905,[-0.4398148148148148],[0.26296296296296295],[1],[0],[0],[1.9114927999908105],['target'],2,001,2024-10-09_12h33.06.000,visualsearch,2024.1.5,None,2024-10-09 12h33.16.863421 +0530,
33,0,33,0,95.06731469999067,,95.01817850000225,10,95.06731469999067,95.06731469999067,0.038026100024580956,98.49466880003456,[-0.4305555555555556],[0.4101851851851852],[1],[0],[0],[3.438905499991961],['target'],2,001,2024-10-09_12h33.06.000,visualsearch,2024.1.5,None,2024-10-09 12h33.16.863421 +0530,
34,0,34,0,98.52673250006046,,98.5002908000024,5,98.52673250006046,98.52673250006046,0.01758960005827248,101.63038510002661,[-0.01574074074074074],[0.2675925925925926],[1],[0],[0],[3.112924600020051],['target'],2,001,2024-10-09_12h33.06.000,visualsearch,2024.1.5,None,2024-10-09 12h33.16.863421 +0530,
35,0,35,0,101.68440999998711,,101.63470430008601,10,101.68440999998711,101.68440999998711,0.03558979998342693,103.29566820000764,[-0.20277777777777778],[0.3824074074074074],[1],[0],[0],[1.6258719000034034],['target'],2,001,2024-10-09_12h33.06.000,visualsearch,2024.1.5,None,2024-10-09 12h33.16.863421 +0530,
36,0,36,0,103.32891720009502,,103.29877160000615,5,103.32891720009502,103.32891720009502,0.018560700002126396,104.56195880006999,[-0.28425925925925927],[0.3037037037037037],[1],[0],[0],[1.2443881999934092],['target'],2,001,2024-10-09_12h33.06.000,visualsearch,2024.1.5,None,2024-10-09 12h33.16.863421 +0530,
37,0,37,0,104.61122439999599,,104.5667297000764,10,104.61122439999599,104.61122439999599,0.03239249996840954,107.27814910002053,[0.25277777777777777],[-0.31851851851851853],[1],[0],[0],[2.679361900081858],['target'],2,001,2024-10-09_12h33.06.000,visualsearch,2024.1.5,None,2024-10-09 12h33.16.863421 +0530,
38,0,38,0,107.33297600003425,,107.28153470007237,10,107.33297600003425,107.33297600003425,0.03255839995108545,108.57887580001261,[0.31203703703703706],[-0.37777777777777777],[1],[0],[0],[1.2647671999875456],['target'],2,001,2024-10-09_12h33.06.000,visualsearch,2024.1.5,None,2024-10-09 12h33.16.863421 +0530,
39,0,39,0,108.61302620009519,,108.58532630000263,5,108.61302620009519,108.61302620009519,0.018703200039453804,110.6119972000597,[-0.10740740740740741],[-0.05740740740740741],[1],[0],[0],[2.0087638000259176],['target'],2,001,2024-10-09_12h33.06.000,visualsearch,2024.1.5,None,2024-10-09 12h33.16.863421 +0530,
40,0,40,0,110.66520859999582,,110.6165482000215,10,110.66520859999582,110.66520859999582,0.0334024999756366,112.34483650000766,[0.25462962962962965],[-0.32314814814814813],[1],[0],[0],[1.695353899965994],['target'],2,001,2024-10-09_12h33.06.000,visualsearch,2024.1.5,None,2024-10-09 12h33.16.863421 +0530,
41,0,41,0,112.3942917000968,,112.34806320001371,10,112.3942917000968,112.3942917000968,0.03002910001669079,116.5117506000679,[-0.2740740740740741],[-0.4546296296296296],[1],[0],[0],[4.133664799970575],['target'],2,001,2024-10-09_12h33.06.000,visualsearch,2024.1.5,None,2024-10-09 12h33.16.863421 +0530,
42,0,42,0,116.56346810003743,,116.51610620005522,10,116.56346810003743,116.56346810003743,0.03149330010637641,121.56149790005293,[-0.3194444444444444],[0.45555555555555555],[1],[0],[0],[5.014182199956849],['target'],2,001,2024-10-09_12h33.06.000,visualsearch,2024.1.5,None,2024-10-09 12h33.16.863421 +0530,
43,0,43,0,121.61148449999746,,121.56710340001155,10,121.61148449999746,121.61148449999746,0.03111350000835955,124.6612517000176,[0.4898148148148148],[-0.4351851851851852],[1],[0],[0],[3.063604399911128],['target'],2,001,2024-10-09_12h33.06.000,visualsearch,2024.1.5,None,2024-10-09 12h33.16.863421 +0530,
44,0,44,0,124.73160470009316,,124.66529110004194,10,124.73160470009316,124.73160470009316,0.05078049993608147,127.56308039999567,[-0.001851851851851852],[0.35462962962962963],[1],[0],[0],[2.8469837000593543],['target'],2,001,2024-10-09_12h33.06.000,visualsearch,2024.1.5,None,2024-10-09 12h33.16.863421 +0530,
45,0,45,0,127.61360899999272,,127.56830280006398,10,127.61360899999272,127.61360899999272,0.031072499928995967,133.461839399999,[0.22314814814814815],[0.0824074074074074],[1],[0],[0],[5.862733499961905],['target'],2,001,2024-10-09_12h33.06.000,visualsearch,2024.1.5,None,2024-10-09 12h33.16.863421 +0530,
46,0,46,0,133.49907570006326,,133.46803119999822,5,133.49907570006326,133.49907570006326,0.02043719997163862,142.71273420006037,[0.30185185185185187],[0.04814814814814815],[1],[0],[0],[9.22457530000247],['target'],2,001,2024-10-09_12h33.06.000,visualsearch,2024.1.5,None,2024-10-09 12h33.16.863421 +0530,
47,0,47,0,142.74624480004422,,142.71788660006132,5,142.74624480004422,142.74624480004422,0.018277899944223464,144.49682220001705,[-0.3277777777777778],[0.34444444444444444],[1],[0],[0],[1.7607271000742912],['target'],2,001,2024-10-09_12h33.06.000,visualsearch,2024.1.5,None,2024-10-09 12h33.16.863421 +0530,
48,0,48,0,144.53077100007795,,144.50305520009715,5,144.53077100007795,144.53077100007795,0.017889800015836954,146.51373510004487,[-0.3731481481481482],[-0.17777777777777778],[1],[0],[0],[1.993219800060615],['target'],2,001,2024-10-09_12h33.06.000,visualsearch,2024.1.5,None,2024-10-09 12h33.16.863421 +0530,
49,0,49,0,146.54720290005207,,146.5178314000368,5,146.54720290005207,146.54720290005207,0.020674999919719994,148.72925139998551,[0.3509259259259259],[-0.032407407407407406],[1],[0],[0],[2.1909710000036284],['target'],2,001,2024-10-09_12h33.06.000,visualsearch,2024.1.5,None,2024-10-09 12h33.16.863421 +0530,
50,0,50,0,148.7591385000851,,148.73422169999685,5,148.7591385000851,148.7591385000851,0.017312100040726364,151.22760029998608,[-0.014814814814814815],[-0.4759259259259259],[1],[0],[0],[2.476365700014867],['target'],2,001,2024-10-09_12h33.06.000,visualsearch,2024.1.5,None,2024-10-09 12h33.16.863421 +0530,
51,0,51,0,151.2887321000453,,151.23196590004954,10,151.2887321000453,151.2887321000453,0.036518000066280365,152.94461170001887,[0.10833333333333334],[-0.06851851851851852],[1],[0],[0],[1.6764707999536768],['target'],2,001,2024-10-09_12h33.06.000,visualsearch,2024.1.5,None,2024-10-09 12h33.16.863421 +0530,
52,0,52,0,152.99383809999563,,152.9478012000909,10,152.99383809999563,152.99383809999563,0.034652000060305,154.59530660009477,[0.3592592592592593],[0.17777777777777778],[1],[0],[0],[1.6128104999661446],['target'],2,001,2024-10-09_12h33.06.000,visualsearch,2024.1.5,None,2024-10-09 12h33.16.863421 +0530,
53,0,53,0,154.62605780002195,,154.60100950009655,5,154.62605780002195,154.62605780002195,0.01726210000924766,156.146942100022,[0.20277777777777778],[-0.03796296296296296],[1],[0],[0],[1.5291978999739513],['target'],2,001,2024-10-09_12h33.06.000,visualsearch,2024.1.5,None,2024-10-09 12h33.16.863421 +0530,
54,0,54,0,156.18324919999577,,156.15492840006482,5,156.18324919999577,156.18324919999577,0.021779000060632825,158.39444760000333,[0.12037037037037036],[-0.42407407407407405],[1],[0],[0],[2.21893380000256],['target'],2,001,2024-10-09_12h33.06.000,visualsearch,2024.1.5,None,2024-10-09 12h33.16.863421 +0530,
55,0,55,0,158.4452934000874,,158.39756850001868,10,158.4452934000874,158.4452934000874,0.0323289999505505,160.64458870003,[0.13148148148148148],[-0.26481481481481484],[1],[0],[0],[2.214850899996236],['target'],2,001,2024-10-09_12h33.06.000,visualsearch,2024.1.5,None,2024-10-09 12h33.16.863421 +0530,
56,0,56,0,160.673478599987,,160.64776389999315,5,160.673478599987,160.673478599987,0.015330499969422817,162.21224010002334,[-0.2101851851851852],[-0.05462962962962963],[1],[0],[0],[1.549285399960354],['target'],2,001,2024-10-09_12h33.06.000,visualsearch,2024.1.5,None,2024-10-09 12h33.16.863421 +0530,
57,0,57,0,162.24861190002412,,162.2160273999907,5,162.24861190002412,162.24861190002412,0.02136310003697872,164.19447870005388,[-0.08703703703703704],[0.5],[1],[0],[0],[1.957315200008452],['target'],2,001,2024-10-09_12h33.06.000,visualsearch,2024.1.5,None,2024-10-09 12h33.16.863421 +0530,
58,0,58,0,164.22518130007666,,164.19742790004238,5,164.22518130007666,164.22518130007666,0.0188400000333786,165.71312289999332,[-0.19166666666666668],[0.0962962962962963],[1],[0],[0],[1.4966470000799745],['target'],2,001,2024-10-09_12h33.06.000,visualsearch,2024.1.5,None,2024-10-09 12h33.16.863421 +0530,
59,0,59,0,165.74802649999037,,165.7202361000236,5,165.74802649999037,165.74802649999037,0.019884799956344068,168.4474742000457,[-0.20462962962962963],[-0.3388888888888889],[1],[0],[0],[2.7080724999541417],['target'],2,001,2024-10-09_12h33.06.000,visualsearch,2024.1.5,None,2024-10-09 12h33.16.863421 +0530,
60,0,60,0,168.48093510000035,,168.45366400002968,5,168.48093510000035,168.48093510000035,0.019849599921144545,170.2613858000841,[-0.20925925925925926],[0.2796296296296296],[1],[0],[0],[1.788533000042662],['target'],2,001,2024-10-09_12h33.06.000,visualsearch,2024.1.5,None,2024-10-09 12h33.16.863421 +0530,
61,0,61,0,170.2891945000738,,170.26494420005474,5,170.2891945000738,170.2891945000738,0.016792899928987026,173.23061379999854,[-0.21666666666666667],[0.45092592592592595],[1],[0],[0],[2.948773100040853],['target'],2,001,2024-10-09_12h33.06.000,visualsearch,2024.1.5,None,2024-10-09 12h33.16.863421 +0530,
62,0,62,0,173.26621730008628,,173.23642650002148,5,173.26621730008628,173.26621730008628,0.01871289999689907,175.46181500004604,[-0.12129629629629629],[-0.32037037037037036],[1],[0],[0],[2.207172300084494],['target'],2,001,2024-10-09_12h33.06.000,visualsearch,2024.1.5,None,2024-10-09 12h33.16.863421 +0530,
63,0,63,0,175.49704530008603,,175.46807750000153,5,175.49704530008603,175.49704530008603,0.01806339994072914,177.57836550008506,[0.3296296296296296],[0.41388888888888886],[1],[0],[0],[2.0923096999758855],['target'],2,001,2024-10-09_12h33.06.000,visualsearch,2024.1.5,None,2024-10-09 12h33.16.863421 +0530,
64,0,64,0,177.61149899999145,,177.5828258000547,5,177.61149899999145,177.61149899999145,0.018924799980595708,179.34588700009044,[0.2833333333333333],[-0.1537037037037037],[1],[0],[0],[1.7444455000804737],['target'],2,001,2024-10-09_12h33.06.000,visualsearch,2024.1.5,None,2024-10-09 12h33.16.863421 +0530,
65,0,65,0,179.40492800006177,,179.35220540000591,10,179.40492800006177,179.40492800006177,0.038233499974012375,183.5618325000396,[-0.017592592592592594],[-0.06296296296296296],[1],[0],[0],[4.1721660000039265],['target'],2,001,2024-10-09_12h33.06.000,visualsearch,2024.1.5,None,2024-10-09 12h33.16.863421 +0530,
66,0,66,0,183.5986922000302,,183.5673167000059,5,183.5986922000302,183.5986922000302,0.02077780000399798,185.04685500008054,[0.2759259259259259],[0.024074074074074074],[1],[0],[0],[1.4589249999262393],['target'],2,001,2024-10-09_12h33.06.000,visualsearch,2024.1.5,None,2024-10-09 12h33.16.863421 +0530,
67,0,67,0,185.07942960003857,,185.05261160002556,5,185.07942960003857,185.07942960003857,0.01814980001654476,186.9643845000537,[-0.29259259259259257],[-0.15648148148148147],[1],[0],[0],[1.8938887000549585],['target'],2,001,2024-10-09_12h33.06.000,visualsearch,2024.1.5,None,2024-10-09 12h33.16.863421 +0530,
68,0,68,0,187.0023511000909,,186.96923889999744,5,187.0023511000909,187.0023511000909,0.022793299984186888,188.6954182999907,[-0.44074074074074077],[0.26666666666666666],[1],[0],[0],[1.7034759999951348],['target'],2,001,2024-10-09_12h33.06.000,visualsearch,2024.1.5,None,2024-10-09 12h33.16.863421 +0530,
69,0,69,0,188.73410170001443,,188.7001786000328,5,188.73410170001443,188.73410170001443,0.021814199979417026,190.8303278000094,[-0.3425925925925926],[-0.2898148148148148],[1],[0],[0],[2.1086410999996588],['target'],2,001,2024-10-09_12h33.06.000,visualsearch,2024.1.5,None,2024-10-09 12h33.16.863421 +0530,
70,0,70,0,190.8855374000268,,190.83733820007183,10,190.8855374000268,190.8855374000268,0.03518850007094443,192.83001290005632,[0.041666666666666664],[-0.3074074074074074],[1],[0],[0],[1.9583116000285372],['target'],2,001,2024-10-09_12h33.06.000,visualsearch,2024.1.5,None,2024-10-09 12h33.16.863421 +0530,
71,0,71,0,192.8834648000775,,192.83562150003854,10,192.8834648000775,192.8834648000775,0.03266040002927184,194.89721720002126,[0.06851851851851852],[-0.3074074074074074],[1],[0],[0],[2.0297122000483796],['target'],2,001,2024-10-09_12h33.06.000,visualsearch,2024.1.5,None,2024-10-09 12h33.16.863421 +0530,
72,0,72,0,194.93319900007918,,194.90240980009548,5,194.93319900007918,194.93319900007918,0.020697100088000298,196.42915290000383,[-0.04814814814814815],[0.4212962962962963],[1],[0],[0],[1.5060211000964046],['target'],2,001,2024-10-09_12h33.06.000,visualsearch,2024.1.5,None,2024-10-09 12h33.16.863421 +0530,
73,0,73,0,196.47844400000758,,196.43391870008782,10,196.47844400000758,196.47844400000758,0.03405919997021556,198.29468240006827,[-0.05740740740740741],[0.03333333333333333],[1],[0],[0],[1.8270153999328613],['target'],2,001,2024-10-09_12h33.06.000,visualsearch,2024.1.5,None,2024-10-09 12h33.16.863421 +0530,
74,0,74,0,198.34379620000254,,198.30007370002568,10,198.34379620000254,198.34379620000254,0.03295200003776699,200.61141200002749,[0.4287037037037037],[-0.11574074074074074],[1],[0],[0],[2.279099600040354],['target'],2,001,2024-10-09_12h33.06.000,visualsearch,2024.1.5,None,2024-10-09 12h33.16.863421 +0530,
75,0,75,0,200.64182660006918,,200.6151410000166,5,200.64182660006918,200.64182660006918,0.016092599951662123,202.7979342000326,[0.2814814814814815],[-0.25092592592592594],[1],[0],[0],[2.166688399971463],['target'],2,001,2024-10-09_12h33.06.000,visualsearch,2024.1.5,None,2024-10-09 12h33.16.863421 +0530,
76,0,76,0,202.83325890009291,,202.8055346000474,5,202.83325890009291,202.83325890009291,0.01925960008520633,204.21185270010028,[0.487962962962963],[-0.19907407407407407],[1],[0],[0],[1.3878178999293596],['target'],2,001,2024-10-09_12h33.06.000,visualsearch,2024.1.5,None,2024-10-09 12h33.16.863421 +0530,
77,0,77,0,204.2470205000136,,204.21622440009378,5,204.2470205000136,204.2470205000136,0.021175400004722178,206.4619696000591,[0.08981481481481482],[0.053703703703703705],[1],[0],[0],[2.2246987000107765],['target'],2,001,2024-10-09_12h33.06.000,visualsearch,2024.1.5,None,2024-10-09 12h33.16.863421 +0530,
78,0,78,0,206.49688640004024,,206.46697609999683,5,206.49688640004024,206.49688640004024,0.021829099976457655,208.34507969999686,[0.032407407407407406],[-0.17685185185185184],[1],[0],[0],[1.856506200041622],[],2,001,2024-10-09_12h33.06.000,visualsearch,2024.1.5,None,2024-10-09 12h33.16.863421 +0530,
79,0,79,0,208.39446179999504,,208.34951640001964,10,208.39446179999504,208.39446179999504,0.03267560002859682,210.67856090003625,[-0.46296296296296297],[-0.4722222222222222],[1],[0],[0],[2.2964160999981686],['target'],2,001,2024-10-09_12h33.06.000,visualsearch,2024.1.5,None,2024-10-09 12h33.16.863421 +0530,
80,0,80,0,210.7298574000597,,210.68524180003442,10,210.7298574000597,210.7298574000597,0.03138509998098016,212.74776170006953,[0.18611111111111112],[-0.24722222222222223],[1],[0],[0],[2.0313212000764906],['target'],2,001,2024-10-09_12h33.06.000,visualsearch,2024.1.5,None,2024-10-09 12h33.16.863421 +0530,
81,0,81,0,212.8006960999919,,212.75293830002192,10,212.8006960999919,212.8006960999919,0.03341859998181462,214.46130349999294,[0.19722222222222222],[0.10740740740740741],[1],[0],[0],[1.6754758999450132],['target'],2,001,2024-10-09_12h33.06.000,visualsearch,2024.1.5,None,2024-10-09 12h33.16.863421 +0530,
82,0,82,0,214.51425910007674,,214.46517350000795,10,214.51425910007674,214.51425910007674,0.033237600000575185,217.17807810008526,[0.47129629629629627],[-0.412962962962963],[1],[0],[0],[2.6799679999239743],['target'],2,001,2024-10-09_12h33.06.000,visualsearch,2024.1.5,None,2024-10-09 12h33.16.863421 +0530,
83,0,83,0,217.211154300021,,217.18175930005964,5,217.211154300021,217.211154300021,0.020759699982590973,219.01161100005265,[0.42314814814814816],[0.3453703703703704],[1],[0],[0],[1.809259600006044],['target'],2,001,2024-10-09_12h33.06.000,visualsearch,2024.1.5,None,2024-10-09 12h33.16.863421 +0530,
84,0,84,0,219.0389753000345,,219.01546860008966,5,219.0389753000345,219.0389753000345,0.01629350008442998,220.71167550003156,[0.4564814814814815],[0.25925925925925924],[1],[0],[0],[1.679895699955523],['target'],2,001,2024-10-09_12h33.06.000,visualsearch,2024.1.5,None,2024-10-09 12h33.16.863421 +0530,
85,0,85,0,220.76011999999173,,220.7158562000841,10,220.76011999999173,220.76011999999173,0.03365350002422929,222.91180160001386,[-0.45185185185185184],[0.39444444444444443],[1],[0],[0],[2.162417200044729],['target'],2,001,2024-10-09_12h33.06.000,visualsearch,2024.1.5,None,2024-10-09 12h33.16.863421 +0530,
86,0,86,0,222.96221450006124,,222.91636790009215,10,222.96221450006124,222.96221450006124,0.033707500086165965,225.41203310003038,[0.1962962962962963],[0.337037037037037],[1],[0],[0],[2.462114699999802],['target'],2,001,2024-10-09_12h33.06.000,visualsearch,2024.1.5,None,2024-10-09 12h33.16.863421 +0530,
87,0,87,0,225.464180400013,,225.41920010000467,10,225.464180400013,225.464180400013,0.033664300106465816,227.0460748000769,[0.16203703703703703],[0.09814814814814815],[1],[0],[0],[1.5938205999555066],['target'],2,001,2024-10-09_12h33.06.000,visualsearch,2024.1.5,None,2024-10-09 12h33.16.863421 +0530,
88,0,88,0,227.0804525000276,,227.05066910001915,5,227.0804525000276,227.0804525000276,0.020674699917435646,228.56184340000618,[-0.25],[0.16944444444444445],[1],[0],[0],[1.490905400016345],['target'],2,001,2024-10-09_12h33.06.000,visualsearch,2024.1.5,None,2024-10-09 12h33.16.863421 +0530,
89,0,89,0,228.59511440002825,,228.5661457000533,5,228.59511440002825,228.59511440002825,0.020868100109510124,230.52861869998742,[0.15462962962962962],[0.2935185185185185],[1],[0],[0],[1.9417717999313027],['target'],2,001,2024-10-09_12h33.06.000,visualsearch,2024.1.5,None,2024-10-09 12h33.16.863421 +0530,
90,0,90,0,230.56233840005007,,230.53458650002722,5,230.56233840005007,230.56233840005007,0.020673599909059703,232.24507380009163,[-0.08055555555555556],[-0.18703703703703703],[1],[0],[0],[1.6900650999741629],['target'],2,001,2024-10-09_12h33.06.000,visualsearch,2024.1.5,None,2024-10-09 12h33.16.863421 +0530,
91,0,91,0,232.27552970009856,,232.24938819999807,5,232.27552970009856,232.27552970009856,0.0177038999972865,234.16146400000434,[-0.24444444444444444],[-0.36574074074074076],[1],[0],[0],[1.8947431000415236],['target'],2,001,2024-10-09_12h33.06.000,visualsearch,2024.1.5,None,2024-10-09 12h33.16.863421 +0530,
92,0,92,0,234.21239480003715,,234.1660555000417,10,234.21239480003715,234.21239480003715,0.032467400073073804,236.7638794000959,[0.31666666666666665],[-0.20092592592592592],[1],[0],[0],[2.5655682999640703],['target'],2,001,2024-10-09_12h33.06.000,visualsearch,2024.1.5,None,2024-10-09 12h33.16.863421 +0530,
93,0,93,0,236.81267020001542,,236.7688027000986,10,236.81267020001542,236.81267020001542,0.03213740000501275,241.34460180008318,[-0.30277777777777776],[-0.4685185185185185],[1],[0],[0],[4.543992300052196],['target'],2,001,2024-10-09_12h33.06.000,visualsearch,2024.1.5,None,2024-10-09 12h33.16.863421 +0530,
94,0,94,0,241.39528200007044,,241.34758430009242,10,241.39528200007044,241.39528200007044,0.03402810008265078,244.3783712000586,[0.11018518518518519],[0.4787037037037037],[1],[0],[0],[2.996694799978286],['target'],2,001,2024-10-09_12h33.06.000,visualsearch,2024.1.5,None,2024-10-09 12h33.16.863421 +0530,
95,0,95,0,244.411935799988,,244.38323879998643,5,244.411935799988,244.411935799988,0.020924299955368042,246.08041020005476,[-0.001851851851851852],[0.10555555555555556],[1],[0],[0],[1.6763166999444366],['target'],2,001,2024-10-09_12h33.06.000,visualsearch,2024.1.5,None,2024-10-09 12h33.16.863421 +0530,
96,0,96,0,246.13386820000596,,246.08510840008967,10,246.13386820000596,246.13386820000596,0.036792000057175756,248.09482830006164,[0.38333333333333336],[0.4166666666666667],[1],[0],[0],[1.9733548000222072],['target'],2,001,2024-10-09_12h33.06.000,visualsearch,2024.1.5,None,2024-10-09 12h33.16.863421 +0530,
97,0,97,0,248.14445590006653,,248.09888130007312,10,248.14445590006653,248.14445590006653,0.03310190001502633,250.22868619998917,[-0.44814814814814813],[0.24259259259259258],[1],[0],[0],[2.0967537000542507],['target'],2,001,2024-10-09_12h33.06.000,visualsearch,2024.1.5,None,2024-10-09 12h33.16.863421 +0530,
98,0,98,0,250.26138310006354,,250.23423500009812,5,250.26138310006354,250.26138310006354,0.01720559992827475,252.04518430004828,[-0.5],[0.046296296296296294],[1],[0],[0],[1.794174800044857],['target'],2,001,2024-10-09_12h33.06.000,visualsearch,2024.1.5,None,2024-10-09 12h33.16.863421 +0530,
99,0,99,0,252.0769178000046,,252.05005349998828,5,252.0769178000046,252.0769178000046,0.019014199962839484,253.49453270004597,[0.011111111111111112],[0.075],[1],[0],[0],[1.4259130998980254],['target'],2,001,2024-10-09_12h33.06.000,visualsearch,2024.1.5,None,2024-10-09 12h33.16.863421 +0530,
100,0,100,0,253.5409370000707,,253.4983576000668,10,253.5409370000707,253.5409370000707,0.03009610006120056,254.99677070009056,[0.0],[0.3175925925925926],[1],[0],[0],[1.4682299999985844],['target'],2,001,2024-10-09_12h33.06.000,visualsearch,2024.1.5,None,2024-10-09 12h33.16.863421 +0530,
101,0,101,0,255.02827980008442,,255.00269380002283,5,255.02827980008442,255.02827980008442,0.018008100101724267,257.06156300008297,[-0.05185185185185185],[-0.21388888888888888],[1],[0],[0],[2.0413265000097454],['target'],2,001,2024-10-09_12h33.06.000,visualsearch,2024.1.5,None,2024-10-09 12h33.16.863421 +0530,
102,0,102,0,257.1116461000638,,257.06577460002154,10,257.1116461000638,257.1116461000638,0.034990700078196824,258.69535300007556,[0.20462962962962963],[0.20462962962962963],[1],[0],[0],[1.594825700041838],['target'],2,001,2024-10-09_12h33.06.000,visualsearch,2024.1.5,None,2024-10-09 12h33.16.863421 +0530,
103,0,103,0,258.7426380000543,,258.7011781000765,10,258.7426380000543,258.7426380000543,0.03142769995611161,260.8455399000086,[-0.040740740740740744],[-0.18703703703703703],[1],[0],[0],[2.1136731000151485],['target'],2,001,2024-10-09_12h33.06.000,visualsearch,2024.1.5,None,2024-10-09 12h33.16.863421 +0530,
104,0,104,0,260.8969126000302,,260.84973480005283,10,260.8969126000302,260.8969126000302,0.03306069993413985,263.2939460000489,[0.48333333333333334],[0.16296296296296298],[1],[0],[0],[2.4116645999019966],['target'],2,001,2024-10-09_12h33.06.000,visualsearch,2024.1.5,None,2024-10-09 12h33.16.863421 +0530,
105,0,105,0,263.32092430000193,,263.29695740004536,5,263.32092430000193,263.32092430000193,0.016717900056391954,265.1812111000763,[-0.22685185185185186],[0.25925925925925924],[1],[0],[0],[1.867386500001885],['target'],2,001,2024-10-09_12h33.06.000,visualsearch,2024.1.5,None,2024-10-09 12h33.16.863421 +0530,
106,0,106,0,265.23408590001054,,265.18662819999736,10,265.23408590001054,265.23408590001054,0.03303980000782758,267.56146680004895,[0.2722222222222222],[-0.35185185185185186],[1],[0],[0],[2.3425766000291333],['target'],2,001,2024-10-09_12h33.06.000,visualsearch,2024.1.5,None,2024-10-09 12h33.16.863421 +0530,
107,0,107,0,267.6132116999943,,267.5651294999989,10,267.6132116999943,267.6132116999943,0.030206099967472255,270.279226200073,[0.049074074074074076],[0.42592592592592593],[1],[0],[0],[2.683943700045347],['target'],2,001,2024-10-09_12h33.06.000,visualsearch,2024.1.5,None,2024-10-09 12h33.16.863421 +0530,
108,0,108,0,270.3444007000653,,270.2854132000357,10,270.3444007000653,270.3444007000653,0.04184889991302043,272.6621128000552,[0.2611111111111111],[0.11574074074074074],[1],[0],[0],[2.335278099984862],['target'],2,001,2024-10-09_12h33.06.000,visualsearch,2024.1.5,None,2024-10-09 12h33.16.863421 +0530,
109,0,109,0,272.6949250000762,,272.66687160008587,5,272.6949250000762,272.6949250000762,0.018476499943062663,274.24680020008236,[-0.16296296296296298],[0.17407407407407408],[1],[0],[0],[1.561820900067687],['target'],2,001,2024-10-09_12h33.06.000,visualsearch,2024.1.5,None,2024-10-09 12h33.16.863421 +0530,
110,0,110,0,274.2819912000559,,274.2536560000153,5,274.2819912000559,274.2819912000559,0.019800999900326133,276.29734010004904,[0.27037037037037037],[0.4203703703703704],[1],[0],[0],[2.024511699914001],['target'],2,001,2024-10-09_12h33.06.000,visualsearch,2024.1.5,None,2024-10-09 12h33.16.863421 +0530,
111,0,111,0,276.3327516000718,,276.3022606000304,5,276.3327516000718,276.3327516000718,0.020486499997787178,278.86164260003716,[-0.45555555555555555],[0.43796296296296294],[1],[0],[0],[2.539055399945937],['target'],2,001,2024-10-09_12h33.06.000,visualsearch,2024.1.5,None,2024-10-09 12h33.16.863421 +0530,
112,0,112,0,278.91268930002116,,278.86689270008355,10,278.91268930002116,278.91268930002116,0.031526300008408725,281.4279562000884,[0.075],[0.05277777777777778],[1],[0],[0],[2.5298735999967903],['target'],2,001,2024-10-09_12h33.06.000,visualsearch,2024.1.5,None,2024-10-09 12h33.16.863421 +0530,
113,0,113,0,281.48358760005794,,281.43192690005526,10,281.48358760005794,281.48358760005794,0.03140410000924021,283.8616707000183,[-0.46296296296296297],[-0.3175925925925926],[1],[0],[0],[2.3983506999211386],['target'],2,001,2024-10-09_12h33.06.000,visualsearch,2024.1.5,None,2024-10-09 12h33.16.863421 +0530,
114,0,114,0,283.9294376000762,,283.86461849999614,10,283.9294376000762,283.9294376000762,0.04505680000875145,286.5299238000298,[-0.17222222222222222],[0.025],[1],[0],[0],[2.620118800085038],['target'],2,001,2024-10-09_12h33.06.000,visualsearch,2024.1.5,None,2024-10-09 12h33.16.863421 +0530,
115,0,115,0,286.58013700006995,,286.53347180003766,10,286.58013700006995,286.58013700006995,0.035535199916921556,289.2785686000716,[0.19444444444444445],[-0.32685185185185184],[1],[0],[0],[2.7095224999357015],['target'],2,001,2024-10-09_12h33.06.000,visualsearch,2024.1.5,None,2024-10-09 12h33.16.863421 +0530,
116,0,116,0,289.31140730006155,,289.283296000096,5,289.31140730006155,289.31140730006155,0.016200099955312908,291.0784653000301,[-0.06851851851851852],[-0.21203703703703702],[1],[0],[0],[1.778959000017494],['target'],2,001,2024-10-09_12h33.06.000,visualsearch,2024.1.5,None,2024-10-09 12h33.16.863421 +0530,
117,0,117,0,291.15232920006383,,291.0829798000632,10,291.15232920006383,291.15232920006383,0.052649599965661764,294.3284026000183,[-0.14629629629629629],[0.38333333333333336],[1],[0],[0],[3.1930269999429584],['target'],2,001,2024-10-09_12h33.06.000,visualsearch,2024.1.5,None,2024-10-09 12h33.16.863421 +0530,
118,0,118,0,294.35918140003923,,294.3339161000913,5,294.35918140003923,294.35918140003923,0.01832459995057434,296.3977548000403,[-0.1935185185185185],[-0.31574074074074077],[1],[0],[0],[2.0460538999177516],['target'],2,001,2024-10-09_12h33.06.000,visualsearch,2024.1.5,None,2024-10-09 12h33.16.863421 +0530,
119,0,119,0,296.44719179999083,,296.40208720008377,10,296.44719179999083,296.44719179999083,0.033319100039079785,298.87843030004296,[0.3962962962962963],[-0.17314814814814813],[1],[0],[0],[2.4432376000331715],['target'],2,001,2024-10-09_12h33.06.000,visualsearch,2024.1.5,None,2024-10-09 12h33.16.863421 +0530,
120,0,120,0,298.9314895001007,,298.8827374000102,10,298.9314895001007,298.9314895001007,0.03390560008119792,300.44496620004065,[0.018518518518518517],[0.26296296296296295],[1],[0],[0],[1.5285336000379175],['target'],2,001,2024-10-09_12h33.06.000,visualsearch,2024.1.5,None,2024-10-09 12h33.16.863421 +0530,
121,0,121,0,300.49564159999136,,300.4487285000505,10,300.49564159999136,300.49564159999136,0.03414499992504716,303.2615281000035,[0.1574074074074074],[-0.38333333333333336],[1],[0],[0],[2.7788562999339774],['target'],2,001,2024-10-09_12h33.06.000,visualsearch,2024.1.5,None,2024-10-09 12h33.16.863421 +0530,
122,0,122,0,303.2919077000115,,303.2663445000071,5,303.2919077000115,303.2919077000115,0.0188402000349015,304.6951818000525,[-0.4722222222222222],[0.33055555555555555],[1],[0],[0],[1.4106337999692187],['target'],2,001,2024-10-09_12h33.06.000,visualsearch,2024.1.5,None,2024-10-09 12h33.16.863421 +0530,
123,0,123,0,304.7525785000762,,304.7006013999926,10,304.7525785000762,304.7525785000762,0.03889760002493858,307.11138360004406,[-0.025925925925925925],[0.2518518518518518],[1],[0],[0],[2.372296000015922],[],2,001,2024-10-09_12h33.06.000,visualsearch,2024.1.5,None,2024-10-09 12h33.16.863421 +0530,
124,0,124,0,307.1811309000477,,307.11637549998704,10,307.1811309000477,307.1811309000477,0.03873050003312528,309.7629939999897,[-0.21666666666666667],[0.40370370370370373],[1],[0],[0],[2.6081745999399573],['target'],2,001,2024-10-09_12h33.06.000,visualsearch,2024.1.5,None,2024-10-09 12h33.16.863421 +0530,
125,0,125,0,309.7979971000459,,309.7690625000978,5,309.7979971000459,309.7979971000459,0.018163400003686547,311.0287037000526,[-0.4305555555555556],[0.32222222222222224],[1],[0],[0],[1.2420041000004858],['target'],2,001,2024-10-09_12h33.06.000,visualsearch,2024.1.5,None,2024-10-09 12h33.16.863421 +0530,
126,0,126,0,311.06009580008686,,311.03361590008717,5,311.06009580008686,311.06009580008686,0.018198899924755096,312.96365300007164,[0.15925925925925927],[-0.42962962962962964],[1],[0],[0],[1.9120307000121102],['target'],2,001,2024-10-09_12h33.06.000,visualsearch,2024.1.5,None,2024-10-09 12h33.16.863421 +0530,
127,0,127,0,312.99929820001125,,312.9683236000128,5,312.99929820001125,312.99929820001125,0.021234799991361797,314.8963356000604,[0.003703703703703704],[0.4759259259259259],[1],[0],[0],[1.9069876000285149],['target'],2,001,2024-10-09_12h33.06.000,visualsearch,2024.1.5,None,2024-10-09 12h33.16.863421 +0530,
128,0,128,0,314.9260429000715,,314.90168230002746,5,314.9260429000715,314.9260429000715,0.017949200002476573,316.5474442000268,[0.375],[-0.017592592592592594],[1],[0],[0],[1.6284120999043807],['target'],2,001,2024-10-09_12h33.06.000,visualsearch,2024.1.5,None,2024-10-09 12h33.16.863421 +0530,
129,0,129,0,316.6042346000904,,316.5522452000296,10,316.6042346000904,316.6042346000904,0.03609799989499152,318.39479300007224,[-0.43148148148148147],[0.48333333333333334],[1],[0],[0],[1.806977799977176],[],2,001,2024-10-09_12h33.06.000,visualsearch,2024.1.5,None,2024-10-09 12h33.16.863421 +0530,
130,0,130,0,318.4224683000939,,318.3982191000832,5,318.4224683000939,318.4224683000939,0.01612440007738769,320.39540410006884,[0.24351851851851852],[0.1712962962962963],[1],[0],[0],[1.9810533999698237],['target'],2,001,2024-10-09_12h33.06.000,visualsearch,2024.1.5,None,2024-10-09 12h33.16.863421 +0530,
131,0,131,0,320.44980280008167,,320.40007149998564,10,320.44980280008167,320.44980280008167,0.03491289995145053,321.96254360000603,[0.09722222222222222],[-0.02962962962962963],[1],[0],[0],[1.5278701999923214],['target'],2,001,2024-10-09_12h33.06.000,visualsearch,2024.1.5,None,2024-10-09 12h33.16.863421 +0530,
132,0,132,0,321.99726820003707,,321.96757139998954,5,321.99726820003707,321.99726820003707,0.017646500025875866,324.31472000002395,[0.27037037037037037],[0.47129629629629627],[1],[0],[0],[2.3298607000615448],['target'],2,001,2024-10-09_12h33.06.000,visualsearch,2024.1.5,None,2024-10-09 12h33.16.863421 +0530,
133,0,133,0,324.35134560009465,,324.3220923000481,5,324.35134560009465,324.35134560009465,0.019833600032143295,327.04513910005335,[0.04537037037037037],[-0.4398148148148148],[1],[0],[0],[2.7040648000547662],['target'],2,001,2024-10-09_12h33.06.000,visualsearch,2024.1.5,None,2024-10-09 12h33.16.863421 +0530,
134,0,134,0,327.0962496000575,,327.05042490002234,10,327.0962496000575,327.0962496000575,0.033785799983888865,328.62850220000837,[0.15555555555555556],[-0.03425925925925926],[1],[0],[0],[1.5447882000589743],['target'],2,001,2024-10-09_12h33.06.000,visualsearch,2024.1.5,None,2024-10-09 12h33.16.863421 +0530,
135,0,135,0,328.67907940002624,,328.63334980001673,10,328.67907940002624,328.67907940002624,0.03262509999331087,330.31267940008547,[0.4675925925925926],[-0.3907407407407407],[1],[0],[0],[1.6469433000311255],['target'],2,001,2024-10-09_12h33.06.000,visualsearch,2024.1.5,None,2024-10-09 12h33.16.863421 +0530,
136,0,136,0,330.34611150005367,,330.3183721000096,5,330.34611150005367,330.34611150005367,0.019473499967716634,332.3641330000246,[-0.2518518518518518],[-0.4444444444444444],[1],[0],[0],[2.02734359994065],['target'],2,001,2024-10-09_12h33.06.000,visualsearch,2024.1.5,None,2024-10-09 12h33.16.863421 +0530,
137,0,137,0,332.41469910007436,,332.37002510007005,10,332.41469910007436,332.41469910007436,0.032502599991858006,334.04491789999884,[-0.07962962962962963],[-0.014814814814814815],[1],[0],[0],[1.6426357999444008],['target'],2,001,2024-10-09_12h33.06.000,visualsearch,2024.1.5,None,2024-10-09 12h33.16.863421 +0530,
138,0,138,0,334.09484070003964,,334.051507199998,10,334.09484070003964,334.09484070003964,0.03094490000512451,335.3785979000386,[-0.028703703703703703],[-0.11666666666666667],[1],[0],[0],[1.2968530000653118],['target'],2,001,2024-10-09_12h33.06.000,visualsearch,2024.1.5,None,2024-10-09 12h33.16.863421 +0530,
139,0,139,0,335.4316112000961,,335.3838179000886,10,335.4316112000961,335.4316112000961,0.029320299974642694,337.0454870000249,[-0.13518518518518519],[0.10833333333333334],[1],[0],[0],[1.6325382000068203],['target'],2,001,2024-10-09_12h33.06.000,visualsearch,2024.1.5,None,2024-10-09 12h33.16.863421 +0530,
140,0,140,0,337.08333380008116,,337.0510521000251,5,337.08333380008116,337.08333380008116,0.019957699929364026,338.74528620007914,[-0.24722222222222223],[0.2935185185185185],[1],[0],[0],[1.6748795999446884],['target'],2,001,2024-10-09_12h33.06.000,visualsearch,2024.1.5,None,2024-10-09 12h33.16.863421 +0530,
141,0,141,0,338.77751980000176,,338.7509746000869,5,338.77751980000176,338.77751980000176,0.01922369992826134,340.7452935000183,[0.04814814814814815],[0.15462962962962962],[1],[0],[0],[1.975374300032854],['target'],2,001,2024-10-09_12h33.06.000,visualsearch,2024.1.5,None,2024-10-09 12h33.16.863421 +0530,
142,0,142,0,340.8039779000683,,340.7494628999848,10,340.8039779000683,340.8039779000683,0.038990500033833086,343.0617872000439,[-0.4],[-0.22777777777777777],[1],[0],[0],[2.2735422000987455],['target'],2,001,2024-10-09_12h33.06.000,visualsearch,2024.1.5,None,2024-10-09 12h33.16.863421 +0530,
143,0,143,0,343.1103976999875,,343.06772460008506,10,343.1103976999875,343.1103976999875,0.0287505000596866,346.24582710000686,[0.24074074074074073],[0.4842592592592593],[1],[0],[0],[3.1494011000031605],['target'],2,001,2024-10-09_12h33.06.000,visualsearch,2024.1.5,None,2024-10-09 12h33.16.863421 +0530,
144,0,144,0,346.3016174000222,,346.25064510002267,10,346.3016174000222,346.3016174000222,0.03357620001770556,347.79561180004384,[0.19722222222222222],[0.36574074074074076],[1],[0],[0],[1.5118051000172272],['target'],2,001,2024-10-09_12h33.06.000,visualsearch,2024.1.5,None,2024-10-09 12h33.16.863421 +0530,
145,0,145,0,347.8288895000005,,347.80214520008303,5,347.8288895000005,347.8288895000005,0.020432300050742924,349.7972036000574,[0.2916666666666667],[-0.44814814814814813],[1],[0],[0],[1.9754860999528319],['target'],2,001,2024-10-09_12h33.06.000,visualsearch,2024.1.5,None,2024-10-09 12h33.16.863421 +0530,
146,0,146,0,349.8511216000188,,349.80195780005306,10,349.8511216000188,349.8511216000188,0.03396599995903671,352.2121962000383,[-0.40555555555555556],[0.14074074074074075],[1],[0],[0],[2.376674700062722],['target'],2,001,2024-10-09_12h33.06.000,visualsearch,2024.1.5,None,2024-10-09 12h33.16.863421 +0530,
147,0,147,0,352.24508150003385,,352.2174784000963,5,352.24508150003385,352.24508150003385,0.018926799995824695,353.82864850002807,[0.2388888888888889],[-0.12777777777777777],[1],[0],[0],[1.5926187000004575],['target'],2,001,2024-10-09_12h33.06.000,visualsearch,2024.1.5,None,2024-10-09 12h33.16.863421 +0530,
148,0,148,0,353.88041500002146,,353.8333759000525,10,353.88041500002146,353.88041500002146,0.03382170002441853,355.97829270001967,[-0.3851851851851852],[0.1],[1],[0],[0],[2.111415500054136],['target'],2,001,2024-10-09_12h33.06.000,visualsearch,2024.1.5,None,2024-10-09 12h33.16.863421 +0530,
149,0,149,0,356.00923870003317,,355.9829044000944,5,356.00923870003317,356.00923870003317,0.016061800066381693,357.84754800004885,[-0.2722222222222222],[0.30833333333333335],[1],[0],[0],[1.8486164000350982],['target'],2,001,2024-10-09_12h33.06.000,visualsearch,2024.1.5,None,2024-10-09 12h33.16.863421 +0530,
150,0,150,0,357.9138718000613,,357.8546704000328,10,357.9138718000613,357.9138718000613,0.036942899925634265,359.5441871000221,[-0.4],[0.22407407407407406],[1],[0],[0],[1.653511399985291],['target'],2,001,2024-10-09_12h33.06.000,visualsearch,2024.1.5,None,2024-10-09 12h33.16.863421 +0530,
151,0,151,0,359.59508260001894,,359.5489498000825,10,359.59508260001894,359.59508260001894,0.03414490004070103,361.6450982000679,[0.35185185185185186],[-0.2537037037037037],[1],[0],[0],[2.062362900003791],['target'],2,001,2024-10-09_12h33.06.000,visualsearch,2024.1.5,None,2024-10-09 12h33.16.863421 +0530,
152,0,152,0,361.69977030006703,,361.64920159999747,10,361.69977030006703,361.69977030006703,0.03361360006965697,363.3121246000519,[-0.020370370370370372],[0.14907407407407408],[1],[0],[0],[1.629428799962625],['target'],2,001,2024-10-09_12h33.06.000,visualsearch,2024.1.5,None,2024-10-09 12h33.16.863421 +0530,
153,0,153,0,363.35992910002824,,363.31677640008274,10,363.35992910002824,363.35992910002824,0.03100570000242442,367.3470902000554,[-0.2462962962962963],[-0.22407407407407406],[1],[0],[0],[3.9994695000350475],['target'],2,001,2024-10-09_12h33.06.000,visualsearch,2024.1.5,None,2024-10-09 12h33.16.863421 +0530,
154,0,154,0,367.3938270000508,,367.35153830004856,10,367.3938270000508,367.3938270000508,0.0320132999913767,370.0617867000401,[-0.2074074074074074],[-0.3611111111111111],[1],[0],[0],[2.678650999907404],['target'],2,001,2024-10-09_12h33.06.000,visualsearch,2024.1.5,None,2024-10-09 12h33.16.863421 +0530,
155,0,155,0,370.08925010007806,,370.0655775000341,5,370.08925010007806,370.08925010007806,0.015733900014311075,371.6953687000787,[0.21481481481481482],[0.2537037037037037],[1],[0],[0],[1.6141938000218943],['target'],2,001,2024-10-09_12h33.06.000,visualsearch,2024.1.5,None,2024-10-09 12h33.16.863421 +0530,
156,0,156,0,371.74591570009943,,371.69987300003413,10,371.74591570009943,371.74591570009943,0.034151699976064265,373.9450937000802,[-0.4361111111111111],[-0.05740740740740741],[1],[0],[0],[2.211291900021024],['target'],2,001,2024-10-09_12h33.06.000,visualsearch,2024.1.5,None,2024-10-09 12h33.16.863421 +0530,
157,0,157,0,373.99738960003015,,373.9509962000884,10,373.99738960003015,373.99738960003015,0.033861199975945055,375.6110348000657,[-0.39814814814814814],[0.3398148148148148],[1],[0],[0],[1.6265452000079677],['target'],2,001,2024-10-09_12h33.06.000,visualsearch,2024.1.5,None,2024-10-09 12h33.16.863421 +0530,
158,0,158,0,375.660924200085,,375.61568160005845,10,375.660924200085,375.660924200085,0.03047210001386702,378.42860430001747,[0.46296296296296297],[-0.29814814814814816],[1],[0],[0],[2.7824624000350013],['target'],2,001,2024-10-09_12h33.06.000,visualsearch,2024.1.5,None,2024-10-09 12h33.16.863421 +0530,
159,0,159,0,378.480755400029,,378.43377860006876,10,378.480755400029,378.480755400029,0.033231699955649674,380.5785060999915,[0.06574074074074074],[-0.03518518518518519],[1],[0],[0],[2.11210020002909],['target'],2,001,2024-10-09_12h33.06.000,visualsearch,2024.1.5,None,2024-10-09 12h33.16.863421 +0530,
160,0,160,0,380.6252913000062,,380.58222960005514,10,380.6252913000062,380.6252913000062,0.030618299962952733,383.6951703000814,[-0.47962962962962963],[0.387037037037037],[1],[0],[0],[3.082410000031814],['target'],2,001,2024-10-09_12h33.06.000,visualsearch,2024.1.5,None,2024-10-09 12h33.16.863421 +0530,
161,0,161,0,383.7274635999929,,383.6988454000093,5,383.7274635999929,383.7274635999929,0.020957100088708103,385.84566780005116,[0.15555555555555556],[0.1814814814814815],[1],[0],[0],[2.1260073999874294],['target'],2,001,2024-10-09_12h33.06.000,visualsearch,2024.1.5,None,2024-10-09 12h33.16.863421 +0530,
162,0,162,0,385.8810651000822,,385.8500818000175,5,385.8810651000822,385.8810651000822,0.022047000005841255,387.54518180002924,[0.4842592592592593],[-0.04537037037037037],[1],[0],[0],[1.6734183999942616],['target'],2,001,2024-10-09_12h33.06.000,visualsearch,2024.1.5,None,2024-10-09 12h33.16.863421 +0530,
163,0,163,0,387.59111660008784,,387.5484935999848,10,387.59111660008784,387.59111660008784,0.02973730000667274,389.1789928000653,[0.18425925925925926],[0.07037037037037037],[1],[0],[0],[1.600266300025396],['target'],2,001,2024-10-09_12h33.06.000,visualsearch,2024.1.5,None,2024-10-09 12h33.16.863421 +0530,
164,0,164,0,389.23024820000865,,389.18391240003984,10,389.23024820000865,389.23024820000865,0.03457320004235953,394.16140109999105,[0.337037037037037],[0.06666666666666667],[1],[0],[0],[4.94355570001062],['target'],2,001,2024-10-09_12h33.06.000,visualsearch,2024.1.5,None,2024-10-09 12h33.16.863421 +0530,
165,0,165,0,394.21315339999273,,394.1648366000736,10,394.21315339999273,394.21315339999273,0.03614680003374815,400.16216770000756,[-0.4898148148148148],[-0.4527777777777778],[1],[0],[0],[5.961398500017822],['target'],2,001,2024-10-09_12h33.06.000,visualsearch,2024.1.5,None,2024-10-09 12h33.16.863421 +0530,
166,0,166,0,400.18993350001983,,400.1667170000728,5,400.18993350001983,400.18993350001983,0.016092699952423573,403.9955135000637,[-0.2962962962962963],[0.2175925925925926],[1],[0],[0],[3.8126468000700697],['target'],2,001,2024-10-09_12h33.06.000,visualsearch,2024.1.5,None,2024-10-09 12h33.16.863421 +0530,
167,0,167,0,404.0244360000361,,404.0000543000642,5,404.0244360000361,404.0244360000361,0.01737889996729791,406.1451175000984,[0.04351851851851852],[-0.35555555555555557],[1],[0],[0],[2.128122100024484],['target'],2,001,2024-10-09_12h33.06.000,visualsearch,2024.1.5,None,2024-10-09 12h33.16.863421 +0530,
168,0,168,0,406.1998668999877,,406.14894550002646,10,406.1998668999877,406.1998668999877,0.039484099950641394,408.111583000049,[-0.16296296296296298],[-0.3990740740740741],[1],[0],[0],[1.9233034999342635],['target'],2,001,2024-10-09_12h33.06.000,visualsearch,2024.1.5,None,2024-10-09 12h33.16.863421 +0530,
169,0,169,0,408.156601900002,,408.11578740004916,10,408.156601900002,408.156601900002,0.03008539997972548,409.74575810006354,[-0.2796296296296296],[0.008333333333333333],[1],[0],[0],[1.59932270005811],['target'],2,001,2024-10-09_12h33.06.000,visualsearch,2024.1.5,None,2024-10-09 12h33.16.863421 +0530,
170,0,170,0,409.7964867000701,,409.75212280009873,10,409.7964867000701,409.7964867000701,0.032267200062051415,413.54741800006013,[0.05555555555555555],[-0.4703703703703704],[1],[0],[0],[3.763399999937974],['target'],2,001,2024-10-09_12h33.06.000,visualsearch,2024.1.5,None,2024-10-09 12h33.16.863421 +0530,
171,0,171,0,413.653336300049,,413.5546153000323,10,413.653336300049,413.653336300049,0.07102829997893423,416.0949195000576,[0.09166666666666666],[0.475],[1],[0],[0],[2.4703675999771804],['target'],2,001,2024-10-09_12h33.06.000,visualsearch,2024.1.5,None,2024-10-09 12h33.16.863421 +0530,
172,0,172,0,416.1242593000643,,416.098028400098,5,416.1242593000643,416.1242593000643,0.0175321000861004,418.9133826000616,[0.262037037037037],[-0.2796296296296296],[1],[0],[0],[2.7974682000931352],['target'],2,001,2024-10-09_12h33.06.000,visualsearch,2024.1.5,None,2024-10-09 12h33.16.863421 +0530,
173,0,173,0,418.95800370001234,,418.91719450009987,5,418.95800370001234,418.95800370001234,0.027946699992753565,421.73063060001004,[-0.3731481481481482],[0.412962962962963],[1],[0],[0],[2.7855728999711573],['target'],2,001,2024-10-09_12h33.06.000,visualsearch,2024.1.5,None,2024-10-09 12h33.16.863421 +0530,
174,0,174,0,421.76449840003625,,421.7347921000328,5,421.76449840003625,421.76449840003625,0.020910899969749153,423.5782572000753,[0.032407407407407406],[-0.16203703703703703],[1],[0],[0],[1.822760200011544],['target'],2,001,2024-10-09_12h33.06.000,visualsearch,2024.1.5,None,2024-10-09 12h33.16.863421 +0530,
175,0,175,0,423.6125584000256,,423.58390279999,5,423.6125584000256,423.6125584000256,0.02065970003604889,426.7955452000024,[-0.0712962962962963],[0.019444444444444445],[1],[0],[0],[3.1912051000399515],['target'],2,001,2024-10-09_12h33.06.000,visualsearch,2024.1.5,None,2024-10-09 12h33.16.863421 +0530,
176,0,176,0,426.85522100003436,,426.801363900071,10,426.85522100003436,426.85522100003436,0.03360850003082305,428.8949142000638,[-0.13333333333333333],[-0.030555555555555555],[1],[0],[0],[2.0602627999614924],['target'],2,001,2024-10-09_12h33.06.000,visualsearch,2024.1.5,None,2024-10-09 12h33.16.863421 +0530,
177,0,177,0,428.94124569999985,,428.89856030000374,10,428.94124569999985,428.94124569999985,0.030011099996045232,431.5283546000719,[0.025925925925925925],[0.07407407407407407],[1],[0],[0],[2.5999457000289112],['target'],2,001,2024-10-09_12h33.06.000,visualsearch,2024.1.5,None,2024-10-09 12h33.16.863421 +0530,
178,0,178,0,431.57927620003466,,431.5331090000691,10,431.57927620003466,431.57927620003466,0.03260170004796237,434.0615585000487,[-0.1398148148148148],[-0.1925925925925926],[1],[0],[0],[2.4959854000480846],['target'],2,001,2024-10-09_12h33.06.000,visualsearch,2024.1.5,None,2024-10-09 12h33.16.863421 +0530,
179,0,179,0,434.0890265000053,,434.06613779999316,5,434.0890265000053,434.0890265000053,0.01619689993094653,436.46457920002285,[-0.2675925925925926],[0.3490740740740741],[1],[0],[0],[2.3825601999415085],['target'],2,001,2024-10-09_12h33.06.000,visualsearch,2024.1.5,None,2024-10-09 12h33.16.863421 +0530,
180,0,180,0,436.5203921000939,,436.4716418000171,10,436.5203921000939,436.5203921000939,0.03385980008170009,440.095189100015,[0.4777777777777778],[-0.2777777777777778],[1],[0],[0],[3.5904106999514624],['target'],2,001,2024-10-09_12h33.06.000,visualsearch,2024.1.5,None,2024-10-09 12h33.16.863421 +0530,
181,0,181,0,440.12721310008783,,440.1001404999988,5,440.12721310008783,440.12721310008783,0.016251299995929003,442.14864180004224,[-0.2574074074074074],[-0.37592592592592594],[1],[0],[0],[2.032177400076762],['target'],2,001,2024-10-09_12h33.06.000,visualsearch,2024.1.5,None,2024-10-09 12h33.16.863421 +0530,
182,0,182,0,442.2102245000424,,442.1561535000801,10,442.2102245000424,442.2102245000424,0.0364071000367403,446.37831729999743,[-0.29814814814814816],[0.21851851851851853],[1],[0],[0],[4.186688799993135],['target'],2,001,2024-10-09_12h33.06.000,visualsearch,2024.1.5,None,2024-10-09 12h33.16.863421 +0530,
183,0,183,0,446.4386262000771,,446.3832925000461,10,446.4386262000771,446.4386262000771,0.03360560000874102,449.27892240008805,[-0.14629629629629629],[-0.28055555555555556],[1],[0],[0],[2.8620794999878854],['target'],2,001,2024-10-09_12h33.06.000,visualsearch,2024.1.5,None,2024-10-09 12h33.16.863421 +0530,
184,0,184,0,449.3280094000511,,449.28491320007015,10,449.3280094000511,449.3280094000511,0.029917399981059134,451.61208190000616,[0.2037037037037037],[0.2101851851851852],[1],[0],[0],[2.2974331999430433],['target'],2,001,2024-10-09_12h33.06.000,visualsearch,2024.1.5,None,2024-10-09 12h33.16.863421 +0530,
185,0,185,0,451.6631854000734,,451.61665540002286,10,451.6631854000734,451.6631854000734,0.033019599970430136,454.3617923000129,[-0.1814814814814815],[-0.1037037037037037],[1],[0],[0],[2.7125416999915615],['target'],2,001,2024-10-09_12h33.06.000,visualsearch,2024.1.5,None,2024-10-09 12h33.16.863421 +0530,
186,0,186,0,454.40811920003034,,454.3663918999955,10,454.40811920003034,454.40811920003034,0.029735299991443753,458.528473900049,[0.3351851851851852],[-0.3537037037037037],[1],[0],[0],[4.13262799999211],['target'],2,001,2024-10-09_12h33.06.000,visualsearch,2024.1.5,None,2024-10-09 12h33.16.863421 +0530,
187,0,187,0,458.58006790000945,,458.535232400056,10,458.58006790000945,458.58006790000945,0.03241859993431717,460.7618970000185,[0.35462962962962963],[0.3148148148148148],[1],[0],[0],[2.1947551000630483],['target'],2,001,2024-10-09_12h33.06.000,visualsearch,2024.1.5,None,2024-10-09 12h33.16.863421 +0530,
188,0,188,0,460.7923638999928,,460.7673838000046,5,460.7923638999928,460.7923638999928,0.016414600075222552,462.3814542000182,[-0.09444444444444444],[0.06018518518518518],[1],[0],[0],[1.5978873999556527],['target'],2,001,2024-10-09_12h33.06.000,visualsearch,2024.1.5,None,2024-10-09 12h33.16.863421 +0530,
189,0,189,0,462.41622090002056,,462.3865126000019,5,462.41622090002056,462.41622090002056,0.022088899975642562,465.0125457000686,[0.03333333333333333],[-0.31851851851851853],[1],[0],[0],[2.6041902999859303],['target'],2,001,2024-10-09_12h33.06.000,visualsearch,2024.1.5,None,2024-10-09 12h33.16.863421 +0530,
190,0,190,0,465.06357230001595,,465.0182588000316,10,465.06357230001595,465.06357230001595,0.03343989991117269,469.66173870000057,[-0.1287037037037037],[0.4759259259259259],[1],[0],[0],[4.610386799904518],['target'],2,001,2024-10-09_12h33.06.000,visualsearch,2024.1.5,None,2024-10-09 12h33.16.863421 +0530,
191,0,191,0,469.69600860006176,,469.66764810006134,5,469.69600860006176,469.69600860006176,0.019848800031468272,471.9792518999893,[0.05740740740740741],[-0.058333333333333334],[1],[0],[0],[2.2922262001084164],['target'],2,001,2024-10-09_12h33.06.000,visualsearch,2024.1.5,None,2024-10-09 12h33.16.863421 +0530,
192,0,192,0,472.01151530002244,,471.9847555999877,5,472.01151530002244,472.01151530002244,0.018828899948857725,474.1784964000108,[0.475],[0.39537037037037037],[1],[0],[0],[2.1751436999766156],['target'],2,001,2024-10-09_12h33.06.000,visualsearch,2024.1.5,None,2024-10-09 12h33.16.863421 +0530,
193,0,193,0,474.2108063000487,,474.1835431000218,5,474.2108063000487,474.2108063000487,0.01948429993353784,475.8788545000134,[-0.08148148148148149],[0.1175925925925926],[1],[0],[0],[1.6758692999137565],['target'],2,001,2024-10-09_12h33.06.000,visualsearch,2024.1.5,None,2024-10-09 12h33.16.863421 +0530,
194,0,194,0,475.91706070001237,,475.88403310009744,5,475.91706070001237,475.91706070001237,0.02140650001820177,478.7967387000099,[-0.1787037037037037],[-0.4444444444444444],[1],[0],[0],[2.8915325000416487],['target'],2,001,2024-10-09_12h33.06.000,visualsearch,2024.1.5,None,2024-10-09 12h33.16.863421 +0530,
195,0,195,0,478.8359241000144,,478.8040102000814,5,478.8359241000144,478.8359241000144,0.022176400059834123,480.6114565000171,[0.4351851851851852],[0.2064814814814815],[1],[0],[0],[1.7862008000956848],['target'],2,001,2024-10-09_12h33.06.000,visualsearch,2024.1.5,None,2024-10-09 12h33.16.863421 +0530,
196,0,196,0,480.6601239000447,,480.61488290003035,10,480.6601239000447,480.6601239000447,0.03133079991675913,482.5778448000783,[0.3055555555555556],[-0.33425925925925926],[1],[0],[0],[1.9320312000345439],['target'],2,001,2024-10-09_12h33.06.000,visualsearch,2024.1.5,None,2024-10-09 12h33.16.863421 +0530,
197,0,197,0,482.628976100008,,482.5810894999886,10,482.628976100008,482.628976100008,0.03314329998102039,484.6307844000403,[0.22314814814814815],[0.15462962962962962],[1],[0],[0],[2.01657370000612],['target'],2,001,2024-10-09_12h33.06.000,visualsearch,2024.1.5,None,2024-10-09 12h33.16.863421 +0530,
198,0,198,0,484.6835151000414,,484.6357917001005,10,484.6835151000414,484.6835151000414,0.03262480010744184,486.928616899997,[0.10277777777777777],[0.12777777777777777],[1],[0],[0],[2.26054909999948],['target'],2,001,2024-10-09_12h33.06.000,visualsearch,2024.1.5,None,2024-10-09 12h33.16.863421 +0530,
199,0,199,0,486.9737285000738,,486.93307410005946,10,486.9737285000738,486.9737285000738,0.02975220000371337,489.4952576000942,[-0.24814814814814815],[0.13796296296296295],[1],[0],[0],[2.532696000067517],['target'],2,001,2024-10-09_12h33.06.000,visualsearch,2024.1.5,None,2024-10-09 12h33.16.863421 +0530,
