trials.thisRepN,trials.thisTrialN,trials.thisN,trials.thisIndex,thisRow.t,notes,trial.started,num_distr,fixation.started,target.started,mouse.started,trial.stopped,mouse.x,mouse.y,mouse.leftButton,mouse.midButton,mouse.rightButton,mouse.time,mouse.clicked_name,participant,session,date,expName,psychopyVersion,frameRate,expStart,
0,0,0,0,0.08835779991932213,,0.027556599932722747,5,0.08835779991932213,0.08835779991932213,0.07088650006335229,3.7174344999948516,[-0.010185185185185186],[-0.19722222222222222],[1],[0],[0],[3.645605399971828],['target'],3,001,2024-10-09_12h45.24.096,visualsearch,2024.1.5,None,2024-10-09 12h45.35.563134 +0530,
1,0,1,0,3.744555199984461,,3.7214811999583617,5,3.744555199984461,3.744555199984461,0.016339599969796836,5.115769000025466,[-0.12129629629629629],[-0.25925925925925924],[1],[0],[0],[1.3779840999050066],['target'],3,001,2024-10-09_12h45.24.096,visualsearch,2024.1.5,None,2024-10-09 12h45.35.563134 +0530,
2,0,2,0,5.152985299937427,,5.122594499960542,5,5.152985299937427,5.152985299937427,0.021891699987463653,8.499722099979408,[-0.39537037037037037],[-0.2074074074074074],[1],[0],[0],[3.356140400050208],['target'],3,001,2024-10-09_12h45.24.096,visualsearch,2024.1.5,None,2024-10-09 12h45.35.563134 +0530,
3,0,3,0,8.556061399984173,,8.505740899941884,10,8.556061399984173,8.556061399984173,0.038297299994155765,10.564380700001493,[-0.36666666666666664],[0.2833333333333333],[1],[0],[0],[2.0210690000094473],['target'],3,001,2024-10-09_12h45.24.096,visualsearch,2024.1.5,None,2024-10-09 12h45.35.563134 +0530,
4,0,4,0,10.593451299937442,,10.56899900001008,5,10.593451299937442,10.593451299937442,0.017184199998155236,12.59821889991872,[0.2833333333333333],[0.2],[1],[0],[0],[2.0120820000302047],['target'],3,001,2024-10-09_12h45.24.096,visualsearch,2024.1.5,None,2024-10-09 12h45.35.563134 +0530,
5,0,5,0,12.635265199933201,,12.60450369992759,5,12.635265199933201,12.635265199933201,0.022079500020481646,17.24799870001152,[0.21481481481481482],[-0.22037037037037038],[1],[0],[0],[4.621683400007896],['target'],3,001,2024-10-09_12h45.24.096,visualsearch,2024.1.5,None,2024-10-09 12h45.35.563134 +0530,
6,0,6,0,17.30050949996803,,17.252230599988252,10,17.30050949996803,17.30050949996803,0.03733299998566508,19.6635866999859,[0.38333333333333336],[0.4388888888888889],[1],[0],[0],[2.374239700031467],['target'],3,001,2024-10-09_12h45.24.096,visualsearch,2024.1.5,None,2024-10-09 12h45.35.563134 +0530,
7,0,7,0,19.69316359993536,,19.66870579996612,5,19.69316359993536,19.69316359993536,0.01766840007621795,21.681678899913095,[-0.2722222222222222],[0.25555555555555554],[1],[0],[0],[1.9952003000071272],['target'],3,001,2024-10-09_12h45.24.096,visualsearch,2024.1.5,None,2024-10-09 12h45.35.563134 +0530,
8,0,8,0,21.71333759999834,,21.686424499959685,5,21.71333759999834,21.71333759999834,0.020404999959282577,23.866872899932787,[0.25833333333333336],[0.2074074074074074],[1],[0],[0],[2.1603989999275655],['target'],3,001,2024-10-09_12h45.24.096,visualsearch,2024.1.5,None,2024-10-09 12h45.35.563134 +0530,
9,0,9,0,23.919782100012526,,23.87339249998331,10,23.919782100012526,23.919782100012526,0.03512270003557205,26.5497532999143,[-0.45740740740740743],[-0.225],[1],[0],[0],[2.6419640000676736],['target'],3,001,2024-10-09_12h45.24.096,visualsearch,2024.1.5,None,2024-10-09 12h45.35.563134 +0530,
10,0,10,0,26.585879200021736,,26.55697659996804,5,26.585879200021736,26.585879200021736,0.021646499983035028,29.114807699923404,[-0.19537037037037036],[-0.4361111111111111],[1],[0],[0],[2.5370407999726012],['target'],3,001,2024-10-09_12h45.24.096,visualsearch,2024.1.5,None,2024-10-09 12h45.35.563134 +0530,
11,0,11,0,29.173320599948056,,29.120473099988885,10,29.173320599948056,29.173320599948056,0.03823609999381006,31.149341500014998,[-0.3287037037037037],[0.09814814814814815],[1],[0],[0],[1.9909426999511197],['target'],3,001,2024-10-09_12h45.24.096,visualsearch,2024.1.5,None,2024-10-09 12h45.35.563134 +0530,
12,0,12,0,31.17871250002645,,31.15462269994896,5,31.17871250002645,31.17871250002645,0.017068999935872853,32.71495850000065,[-0.37222222222222223],[-0.09814814814814815],[1],[0],[0],[1.5436170999892056],['target'],3,001,2024-10-09_12h45.24.096,visualsearch,2024.1.5,None,2024-10-09 12h45.35.563134 +0530,
13,0,13,0,32.765932900016196,,32.71909949998371,10,32.765932900016196,32.765932900016196,0.03445899998769164,34.80259550001938,[-0.487962962962963],[-0.3453703703703704],[1],[0],[0],[2.0492660000454634],['target'],3,001,2024-10-09_12h45.24.096,visualsearch,2024.1.5,None,2024-10-09 12h45.35.563134 +0530,
14,0,14,0,34.87982169992756,,34.807932000025176,10,34.87982169992756,34.87982169992756,0.05472730007022619,38.98291539994534,[-0.08518518518518518],[-0.37222222222222223],[1],[0],[0],[4.120864500058815],['target'],3,001,2024-10-09_12h45.24.096,visualsearch,2024.1.5,None,2024-10-09 12h45.35.563134 +0530,
15,0,15,0,39.03128499991726,,38.98601280001458,10,39.03128499991726,39.03128499991726,0.03425080003216863,40.864767399965785,[-0.47129629629629627],[-0.1037037037037037],[1],[0],[0],[1.8446592000545934],['target'],3,001,2024-10-09_12h45.24.096,visualsearch,2024.1.5,None,2024-10-09 12h45.35.563134 +0530,
16,0,16,0,40.91014619998168,,40.86878889997024,5,40.91014619998168,40.91014619998168,0.032468599965795875,45.35065829998348,[0.1037037037037037],[0.19537037037037036],[1],[0],[0],[4.449033599928953],['target'],3,001,2024-10-09_12h45.24.096,visualsearch,2024.1.5,None,2024-10-09 12h45.35.563134 +0530,
17,0,17,0,45.38607999996748,,45.356125099933706,5,45.38607999996748,45.38607999996748,0.022411899990402162,47.53130399994552,[0.012037037037037037],[-0.08333333333333333],[1],[0],[0],[2.153144800104201],['target'],3,001,2024-10-09_12h45.24.096,visualsearch,2024.1.5,None,2024-10-09 12h45.35.563134 +0530,
18,0,18,0,47.584735499927774,,47.53567239991389,10,47.584735499927774,47.584735499927774,0.03614420001395047,49.28104949998669,[-0.05277777777777778],[0.028703703703703703],[1],[0],[0],[1.7097256999695674],['target'],3,001,2024-10-09_12h45.24.096,visualsearch,2024.1.5,None,2024-10-09 12h45.35.563134 +0530,
19,0,19,0,49.3269509000238,,49.28431229991838,10,49.3269509000238,49.3269509000238,0.029295400017872453,52.964263499947265,[0.12222222222222222],[-0.20092592592592592],[1],[0],[0],[3.6508521999930963],['target'],3,001,2024-10-09_12h45.24.096,visualsearch,2024.1.5,None,2024-10-09 12h45.35.563134 +0530,
20,0,20,0,52.995492700021714,,52.96773619996384,5,52.995492700021714,52.995492700021714,0.018783299950882792,54.83166399993934,[0.4703703703703704],[-0.19722222222222222],[1],[0],[0],[1.8451013999292627],['target'],3,001,2024-10-09_12h45.24.096,visualsearch,2024.1.5,None,2024-10-09 12h45.35.563134 +0530,
21,0,21,0,54.864000299945474,,54.836865399964154,5,54.864000299945474,54.864000299945474,0.01968340005259961,57.26474110002164,[-0.4361111111111111],[-0.21388888888888888],[1],[0],[0],[2.408550800057128],['target'],3,001,2024-10-09_12h45.24.096,visualsearch,2024.1.5,None,2024-10-09 12h45.35.563134 +0530,
22,0,22,0,57.31930520001333,,57.2702548999805,10,57.31930520001333,57.31930520001333,0.03542329999618232,58.964459499926306,[-0.1361111111111111],[0.24259259259259258],[1],[0],[0],[1.6590889000799507],['target'],3,001,2024-10-09_12h45.24.096,visualsearch,2024.1.5,None,2024-10-09 12h45.35.563134 +0530,
23,0,23,0,59.000260500004515,,58.96824399998877,5,59.000260500004515,59.000260500004515,0.02336200000718236,60.383675599936396,[-0.07314814814814814],[0.32685185185185184],[1],[0],[0],[1.3922434999840334],['target'],3,001,2024-10-09_12h45.24.096,visualsearch,2024.1.5,None,2024-10-09 12h45.35.563134 +0530,
24,0,24,0,60.415579200023785,,60.39038029999938,5,60.415579200023785,60.415579200023785,0.018983399961143732,61.8506179000251,[-0.11666666666666667],[0.3351851851851852],[1],[0],[0],[1.4421366000315174],['target'],3,001,2024-10-09_12h45.24.096,visualsearch,2024.1.5,None,2024-10-09 12h45.35.563134 +0530,
25,0,25,0,61.886703299940564,,61.85549709992483,5,61.886703299940564,61.886703299940564,0.022684399969875813,63.91595830000006,[-0.10925925925925926],[-0.04722222222222222],[1],[0],[0],[2.038258000044152],['target'],3,001,2024-10-09_12h45.24.096,visualsearch,2024.1.5,None,2024-10-09 12h45.35.563134 +0530,
26,0,26,0,63.9687861999264,,63.92040129995439,10,63.9687861999264,63.9687861999264,0.03333440003916621,67.147547999979,[0.3712962962962963],[-0.34814814814814815],[1],[0],[0],[3.1939996000146493],['target'],3,001,2024-10-09_12h45.24.096,visualsearch,2024.1.5,None,2024-10-09 12h45.35.563134 +0530,
27,0,27,0,67.174600899918,,67.15059799992014,5,67.174600899918,67.174600899918,0.015636300086043775,68.96730139991269,[0.44814814814814813],[0.26481481481481484],[1],[0],[0],[1.8008557999273762],['target'],3,001,2024-10-09_12h45.24.096,visualsearch,2024.1.5,None,2024-10-09 12h45.35.563134 +0530,
28,0,28,0,69.11149959999602,,68.97211390000302,10,69.11149959999602,69.11149959999602,0.12714329990558326,71.96572659991216,[-0.3138888888888889],[-0.287962962962963],[1],[0],[0],[2.8669724999926984],['target'],3,001,2024-10-09_12h45.24.096,visualsearch,2024.1.5,None,2024-10-09 12h45.35.563134 +0530,
29,0,29,0,72.01249889994506,,71.9694782999577,10,72.01249889994506,72.01249889994506,0.030384899931959808,74.99798999994528,[0.31203703703703706],[0.44814814814814813],[1],[0],[0],[2.9982356000691652],['target'],3,001,2024-10-09_12h45.24.096,visualsearch,2024.1.5,None,2024-10-09 12h45.35.563134 +0530,
30,0,30,0,75.03039289999288,,75.00165999995079,5,75.03039289999288,75.03039289999288,0.019645499996840954,77.00040179991629,[0.03425925925925926],[-0.2361111111111111],[1],[0],[0],[1.9790599999250844],['target'],3,001,2024-10-09_12h45.24.096,visualsearch,2024.1.5,None,2024-10-09 12h45.35.563134 +0530,
31,0,31,0,77.03491930000018,,77.00560609996319,5,77.03491930000018,77.03491930000018,0.02162410004530102,78.46711550001055,[-0.017592592592592594],[-0.33425925925925926],[1],[0],[0],[1.4403442000038922],['target'],3,001,2024-10-09_12h45.24.096,visualsearch,2024.1.5,None,2024-10-09 12h45.35.563134 +0530,
32,0,32,0,78.52102839993313,,78.47255569999106,10,78.52102839993313,78.52102839993313,0.03484540001954883,82.14781429991126,[0.14814814814814814],[0.30833333333333335],[1],[0],[0],[3.6408594000386074],['target'],3,001,2024-10-09_12h45.24.096,visualsearch,2024.1.5,None,2024-10-09 12h45.35.563134 +0530,
33,0,33,0,82.18104289995972,,82.15130139992107,5,82.18104289995972,82.18104289995972,0.02031729998998344,83.89827200002037,[0.15462962962962962],[0.14629629629629629],[1],[0],[0],[1.7266871999017894],['target'],3,001,2024-10-09_12h45.24.096,visualsearch,2024.1.5,None,2024-10-09 12h45.35.563134 +0530,
34,0,34,0,83.95146409992594,,83.90330120001454,10,83.95146409992594,83.95146409992594,0.034515899955295026,85.34761169995181,[0.17685185185185184],[0.06296296296296296],[1],[0],[0],[1.4102628000546247],['target'],3,001,2024-10-09_12h45.24.096,visualsearch,2024.1.5,None,2024-10-09 12h45.35.563134 +0530,
35,0,35,0,85.39583799999673,,85.3516646999633,10,85.39583799999673,85.39583799999673,0.03319069999270141,87.23140699998476,[-0.08518518518518518],[-0.1935185185185185],[1],[0],[0],[1.8466382999904454],['target'],3,001,2024-10-09_12h45.24.096,visualsearch,2024.1.5,None,2024-10-09 12h45.35.563134 +0530,
36,0,36,0,87.28370959998574,,87.23710339993704,5,87.28370959998574,87.28370959998574,0.03501939994748682,90.4649580999976,[-0.37777777777777777],[0.36666666666666664],[1],[0],[0],[3.193192800041288],['target'],3,001,2024-10-09_12h45.24.096,visualsearch,2024.1.5,None,2024-10-09 12h45.35.563134 +0530,
37,0,37,0,90.49731539993081,,90.47050419996958,5,90.49731539993081,90.49731539993081,0.019704799982719123,93.23119319998659,[0.49444444444444446],[-0.25555555555555554],[1],[0],[0],[2.741435500094667],['target'],3,001,2024-10-09_12h45.24.096,visualsearch,2024.1.5,None,2024-10-09 12h45.35.563134 +0530,
38,0,38,0,93.26130329992156,,93.2368413999211,5,93.26130329992156,93.26130329992156,0.01674769993405789,94.94984090002254,[0.1935185185185185],[-0.425],[1],[0],[0],[1.6968101999955252],['target'],3,001,2024-10-09_12h45.24.096,visualsearch,2024.1.5,None,2024-10-09 12h45.35.563134 +0530,
39,0,39,0,94.98264870001003,,94.95453190000262,5,94.98264870001003,94.98264870001003,0.019696899922564626,97.1167328999145,[-0.3537037037037037],[0.3851851851851852],[1],[0],[0],[2.1427870000479743],['target'],3,001,2024-10-09_12h45.24.096,visualsearch,2024.1.5,None,2024-10-09 12h45.35.563134 +0530,
40,0,40,0,97.15507759992033,,97.12249849992804,5,97.15507759992033,97.15507759992033,0.02334700000938028,99.51483929995447,[0.33240740740740743],[-0.3907407407407407],[1],[0],[0],[2.3692335999803618],['target'],3,001,2024-10-09_12h45.24.096,visualsearch,2024.1.5,None,2024-10-09 12h45.35.563134 +0530,
41,0,41,0,99.56660169991665,,99.52040659997147,10,99.56660169991665,99.56660169991665,0.03594860003795475,101.38175469997805,[-0.05925925925925926],[0.1685185185185185],[1],[0],[0],[1.8260138999903575],['target'],3,001,2024-10-09_12h45.24.096,visualsearch,2024.1.5,None,2024-10-09 12h45.35.563134 +0530,
42,0,42,0,101.41740189993288,,101.38609759998508,5,101.41740189993288,101.41740189993288,0.021497400011867285,103.30144880001899,[0.3574074074074074],[0.17962962962962964],[1],[0],[0],[1.8940185999963433],['target'],3,001,2024-10-09_12h45.24.096,visualsearch,2024.1.5,None,2024-10-09 12h45.35.563134 +0530,
43,0,43,0,103.33878450002521,,103.30780559999403,5,103.33878450002521,103.33878450002521,0.02144939999561757,105.19779689994175,[-0.08518518518518518],[0.1638888888888889],[1],[0],[0],[1.8692380000138655],['target'],3,001,2024-10-09_12h45.24.096,visualsearch,2024.1.5,None,2024-10-09 12h45.35.563134 +0530,
44,0,44,0,105.24325599998701,,105.20154539996292,10,105.24325599998701,105.24325599998701,0.029485100065357983,108.06619099993259,[-0.29259259259259257],[-0.33611111111111114],[1],[0],[0],[2.835160900023766],['target'],3,001,2024-10-09_12h45.24.096,visualsearch,2024.1.5,None,2024-10-09 12h45.35.563134 +0530,
45,0,45,0,108.11674730002414,,108.07231830002274,10,108.11674730002414,108.11674730002414,0.03243440005462617,110.23294569994323,[0.34629629629629627],[-0.4648148148148148],[1],[0],[0],[2.1286293000448495],['target'],3,001,2024-10-09_12h45.24.096,visualsearch,2024.1.5,None,2024-10-09 12h45.35.563134 +0530,
46,0,46,0,110.26680739992298,,110.23882949992549,5,110.26680739992298,110.26680739992298,0.01998230000026524,112.84974450001027,[-0.30092592592592593],[0.412962962962963],[1],[0],[0],[2.591522999922745],['target'],3,001,2024-10-09_12h45.24.096,visualsearch,2024.1.5,None,2024-10-09 12h45.35.563134 +0530,
47,0,47,0,112.90766979998443,,112.85417429998051,10,112.90766979998443,112.90766979998443,0.039416000014171004,115.2319774000207,[-0.1],[0.03518518518518519],[1],[0],[0],[2.3388945000479],['target'],3,001,2024-10-09_12h45.24.096,visualsearch,2024.1.5,None,2024-10-09 12h45.35.563134 +0530,
48,0,48,0,115.26044019998517,,115.23708200000692,5,115.26044019998517,115.26044019998517,0.01674769993405789,117.59823349991348,[-0.41388888888888886],[0.1111111111111111],[1],[0],[0],[2.3448815000010654],['target'],3,001,2024-10-09_12h45.24.096,visualsearch,2024.1.5,None,2024-10-09 12h45.35.563134 +0530,
49,0,49,0,117.64931279991288,,117.60463189997245,10,117.64931279991288,117.64931279991288,0.03321319993119687,119.94861339998897,[-0.3138888888888889],[-0.2935185185185185],[1],[0],[0],[2.3112544000614434],['target'],3,001,2024-10-09_12h45.24.096,visualsearch,2024.1.5,None,2024-10-09 12h45.35.563134 +0530,
50,0,50,0,120.00068129994906,,119.95315269997809,10,120.00068129994906,120.00068129994906,0.035078999935649335,123.44897309993394,[0.23055555555555557],[0.2361111111111111],[1],[0],[0],[3.4614615999162197],['target'],3,001,2024-10-09_12h45.24.096,visualsearch,2024.1.5,None,2024-10-09 12h45.35.563134 +0530,
51,0,51,0,123.4950040000258,,123.45296969998162,10,123.4950040000258,123.4950040000258,0.030969099956564605,125.58136029995512,[0.16296296296296298],[-0.11944444444444445],[1],[0],[0],[2.097840500064194],['target'],3,001,2024-10-09_12h45.24.096,visualsearch,2024.1.5,None,2024-10-09 12h45.35.563134 +0530,
52,0,52,0,125.61024860001635,,125.58531709993258,5,125.61024860001635,125.61024860001635,0.016507099964655936,127.36718059994746,[0.3675925925925926],[-0.3037037037037037],[1],[0],[0],[1.7652166000334546],['target'],3,001,2024-10-09_12h45.24.096,visualsearch,2024.1.5,None,2024-10-09 12h45.35.563134 +0530,
53,0,53,0,127.41929679992609,,127.37203640001826,10,127.41929679992609,127.41929679992609,0.035691300057806075,128.96582859999035,[-0.1824074074074074],[-0.12962962962962962],[1],[0],[0],[1.5587376999901608],['target'],3,001,2024-10-09_12h45.24.096,visualsearch,2024.1.5,None,2024-10-09 12h45.35.563134 +0530,
54,0,54,0,129.01373309991322,,128.96995940001216,10,129.01373309991322,129.01373309991322,0.03185050003230572,130.26451629993971,[-0.12037037037037036],[-0.06481481481481481],[1],[0],[0],[1.262969399918802],['target'],3,001,2024-10-09_12h45.24.096,visualsearch,2024.1.5,None,2024-10-09 12h45.35.563134 +0530,
55,0,55,0,130.2916401999537,,130.26823519996833,5,130.2916401999537,130.2916401999537,0.015339600038714707,131.75043209991418,[0.26296296296296295],[0.06296296296296296],[1],[0],[0],[1.4666745000286028],['target'],3,001,2024-10-09_12h45.24.096,visualsearch,2024.1.5,None,2024-10-09 12h45.35.563134 +0530,
56,0,56,0,131.78853319992777,,131.754711400019,5,131.78853319992777,131.78853319992777,0.022988799959421158,134.3500823000213,[-0.42407407407407405],[0.06759259259259259],[1],[0],[0],[2.5726984000066295],['target'],3,001,2024-10-09_12h45.24.096,visualsearch,2024.1.5,None,2024-10-09 12h45.35.563134 +0530,
57,0,57,0,134.40285229997244,,134.35437029995956,10,134.40285229997244,134.40285229997244,0.036193600040860474,136.0325061000185,[-0.3388888888888889],[0.337037037037037],[1],[0],[0],[1.6422614000039175],['target'],3,001,2024-10-09_12h45.24.096,visualsearch,2024.1.5,None,2024-10-09 12h45.35.563134 +0530,
58,0,58,0,136.08021899999585,,136.03745689999778,10,136.08021899999585,136.08021899999585,0.031957500032149255,137.79810969997197,[-0.2759259259259259],[0.11388888888888889],[1],[0],[0],[1.7289832000387833],['target'],3,001,2024-10-09_12h45.24.096,visualsearch,2024.1.5,None,2024-10-09 12h45.35.563134 +0530,
59,0,59,0,137.85096339997835,,137.8024181999499,10,137.85096339997835,137.85096339997835,0.036667499924078584,140.73179119999986,[-0.004629629629629629],[-0.43333333333333335],[1],[0],[0],[2.892709399922751],['target'],3,001,2024-10-09_12h45.24.096,visualsearch,2024.1.5,None,2024-10-09 12h45.35.563134 +0530,
60,0,60,0,140.76065650000237,,140.73588279995602,5,140.76065650000237,140.76065650000237,0.016615800093859434,142.01838189992122,[0.31574074074074077],[-0.03425925925925926],[1],[0],[0],[1.2659464000025764],['target'],3,001,2024-10-09_12h45.24.096,visualsearch,2024.1.5,None,2024-10-09 12h45.35.563134 +0530,
61,0,61,0,142.05273449991364,,142.02438409999013,5,142.05273449991364,142.05273449991364,0.019376000040210783,144.51493710000068,[0.08611111111111111],[0.3638888888888889],[1],[0],[0],[2.471881899982691],['target'],3,001,2024-10-09_12h45.24.096,visualsearch,2024.1.5,None,2024-10-09 12h45.35.563134 +0530,
62,0,62,0,144.56291510001756,,144.5192613999825,10,144.56291510001756,144.56291510001756,0.03159829997457564,146.2146704000188,[-0.19074074074074074],[0.3675925925925926],[1],[0],[0],[1.664396099979058],['target'],3,001,2024-10-09_12h45.24.096,visualsearch,2024.1.5,None,2024-10-09 12h45.35.563134 +0530,
63,0,63,0,146.2646957000252,,146.22024789999705,10,146.2646957000252,146.2646957000252,0.031132600037381053,149.2671035999665,[0.19537037037037036],[0.049074074074074076],[1],[0],[0],[3.0164602999575436],['target'],3,001,2024-10-09_12h45.24.096,visualsearch,2024.1.5,None,2024-10-09 12h45.35.563134 +0530,
64,0,64,0,149.34105449996423,,149.2716299999738,10,149.34105449996423,149.34105449996423,0.0535270000109449,152.83201329992153,[-0.2777777777777778],[0.2824074074074074],[1],[0],[0],[3.5072106000734493],['target'],3,001,2024-10-09_12h45.24.096,visualsearch,2024.1.5,None,2024-10-09 12h45.35.563134 +0530,
65,0,65,0,152.86376699991524,,152.83736909995787,5,152.86376699991524,152.86376699991524,0.019559700042009354,155.68087029992603,[0.08611111111111111],[-0.32314814814814813],[1],[0],[0],[2.82461070001591],['target'],3,001,2024-10-09_12h45.24.096,visualsearch,2024.1.5,None,2024-10-09 12h45.35.563134 +0530,
66,0,66,0,155.72436059999745,,155.68409969995264,10,155.72436059999745,155.72436059999745,0.029359000036492944,159.03296500002034,[0.17777777777777778],[0.3148148148148148],[1],[0],[0],[3.3198058999842033],['target'],3,001,2024-10-09_12h45.24.096,visualsearch,2024.1.5,None,2024-10-09 12h45.35.563134 +0530,
67,0,67,0,159.07500389998313,,159.03706829994917,5,159.07500389998313,159.07500389998313,0.01676010002847761,161.16487199999392,[0.44351851851851853],[0.225],[1],[0],[0],[2.1112389999907464],['target'],3,001,2024-10-09_12h45.24.096,visualsearch,2024.1.5,None,2024-10-09 12h45.35.563134 +0530,
68,0,68,0,161.19831819995306,,161.17000809998717,5,161.19831819995306,161.19831819995306,0.021179699921049178,163.33430019998923,[0.018518518518518517],[-0.4064814814814815],[1],[0],[0],[2.1433483998989686],['target'],3,001,2024-10-09_12h45.24.096,visualsearch,2024.1.5,None,2024-10-09 12h45.35.563134 +0530,
69,0,69,0,163.3689581999788,,163.33965129998978,5,163.3689581999788,163.3689581999788,0.020821899990551174,164.66472899995279,[-0.013888888888888888],[-0.4083333333333333],[1],[0],[0],[1.3045978000154719],['target'],3,001,2024-10-09_12h45.24.096,visualsearch,2024.1.5,None,2024-10-09 12h45.35.563134 +0530,
70,0,70,0,164.71337549993768,,164.67010629992,10,164.71337549993768,164.71337549993768,0.03226509992964566,168.29947149998043,[-0.09259259259259259],[0.4546296296296296],[1],[0],[0],[3.5973487000446767],['target'],3,001,2024-10-09_12h45.24.096,visualsearch,2024.1.5,None,2024-10-09 12h45.35.563134 +0530,
71,0,71,0,168.3393020000076,,168.30551330000162,5,168.3393020000076,168.3393020000076,0.024893099907785654,169.61722169991117,[0.15462962962962962],[0.43425925925925923],[1],[0],[0],[1.2869462999515235],['target'],3,001,2024-10-09_12h45.24.096,visualsearch,2024.1.5,None,2024-10-09 12h45.35.563134 +0530,
72,0,72,0,169.64974669995718,,169.62329879996832,5,169.64974669995718,169.64974669995718,0.019285400048829615,171.36682949995156,[-0.287962962962963],[0.30648148148148147],[1],[0],[0],[1.7248724999371916],['target'],3,001,2024-10-09_12h45.24.096,visualsearch,2024.1.5,None,2024-10-09 12h45.35.563134 +0530,
73,0,73,0,171.3988925999729,,171.3725906999316,5,171.3988925999729,171.3988925999729,0.019907900015823543,173.16536330000963,[-0.10277777777777777],[0.4203703703703704],[1],[0],[0],[1.773348099901341],['target'],3,001,2024-10-09_12h45.24.096,visualsearch,2024.1.5,None,2024-10-09 12h45.35.563134 +0530,
74,0,74,0,173.2120147999376,,173.1706691000145,10,173.2120147999376,173.2120147999376,0.031444799969904125,176.61530079995282,[0.4009259259259259],[-0.22777777777777777],[1],[0],[0],[3.4137363999616355],['target'],3,001,2024-10-09_12h45.24.096,visualsearch,2024.1.5,None,2024-10-09 12h45.35.563134 +0530,
75,0,75,0,176.6621905999491,,176.62035029998515,10,176.6621905999491,176.6621905999491,0.031037500011734664,178.14820239995606,[0.1787037037037037],[-0.09074074074074075],[1],[0],[0],[1.4970002000918612],['target'],3,001,2024-10-09_12h45.24.096,visualsearch,2024.1.5,None,2024-10-09 12h45.35.563134 +0530,
76,0,76,0,178.18216779991053,,178.15363519999664,5,178.18216779991053,178.18216779991053,0.017581299995072186,179.59835159999784,[-0.2361111111111111],[0.1527777777777778],[1],[0],[0],[1.4274404000025243],['target'],3,001,2024-10-09_12h45.24.096,visualsearch,2024.1.5,None,2024-10-09 12h45.35.563134 +0530,
77,0,77,0,179.6719204999972,,179.60263199999463,10,179.6719204999972,179.6719204999972,0.03375870001036674,181.46528290002607,[0.3527777777777778],[-0.2972222222222222],[1],[0],[0],[1.8289726000512019],['target'],3,001,2024-10-09_12h45.24.096,visualsearch,2024.1.5,None,2024-10-09 12h45.35.563134 +0530,
78,0,78,0,181.51499589998275,,181.46987769997213,10,181.51499589998275,181.51499589998275,0.031039000023156404,182.8486564999912,[0.3814814814814815],[-0.40185185185185185],[1],[0],[0],[1.347968599991873],['target'],3,001,2024-10-09_12h45.24.096,visualsearch,2024.1.5,None,2024-10-09 12h45.35.563134 +0530,
79,0,79,0,182.8998547999654,,182.8531828999985,10,182.8998547999654,182.8998547999654,0.029991099960170686,185.9981841999106,[0.21481481481481482],[0.29259259259259257],[1],[0],[0],[3.1150817999150604],['target'],3,001,2024-10-09_12h45.24.096,visualsearch,2024.1.5,None,2024-10-09 12h45.35.563134 +0530,
80,0,80,0,186.04598069994245,,186.00286569993477,10,186.04598069994245,186.04598069994245,0.02990179997868836,187.86456519993953,[0.2712962962962963],[-0.41203703703703703],[1],[0],[0],[1.8320432999171317],['target'],3,001,2024-10-09_12h45.24.096,visualsearch,2024.1.5,None,2024-10-09 12h45.35.563134 +0530,
81,0,81,0,187.9147507000016,,187.86963319999631,10,187.9147507000016,187.9147507000016,0.029489199980162084,190.39830310002435,[-0.14907407407407408],[-0.17685185185185184],[1],[0],[0],[2.499253200017847],['target'],3,001,2024-10-09_12h45.24.096,visualsearch,2024.1.5,None,2024-10-09 12h45.35.563134 +0530,
82,0,82,0,190.44617959996685,,190.4024008999113,10,190.44617959996685,190.44617959996685,0.030832599964924157,193.7495029999409,[0.075],[0.41759259259259257],[1],[0],[0],[3.3164517999393865],['target'],3,001,2024-10-09_12h45.24.096,visualsearch,2024.1.5,None,2024-10-09 12h45.35.563134 +0530,
83,0,83,0,193.81037530000322,,193.75453739997465,10,193.81037530000322,193.81037530000322,0.034150099963881075,196.21594969998114,[-0.25277777777777777],[0.462037037037037],[1],[0],[0],[2.4278491000877693],['target'],3,001,2024-10-09_12h45.24.096,visualsearch,2024.1.5,None,2024-10-09 12h45.35.563134 +0530,
84,0,84,0,196.25032200000715,,196.22186369996052,5,196.25032200000715,196.25032200000715,0.017420999938622117,198.54919920000248,[0.040740740740740744],[-0.3907407407407407],[1],[0],[0],[2.3102127999300137],['target'],3,001,2024-10-09_12h45.24.096,visualsearch,2024.1.5,None,2024-10-09 12h45.35.563134 +0530,
85,0,85,0,198.58358630002476,,198.55525919992942,5,198.58358630002476,198.58358630002476,0.01825610001105815,201.06484260002617,[-0.4546296296296296],[-0.4444444444444444],[1],[0],[0],[2.4917962999315932],['target'],3,001,2024-10-09_12h45.24.096,visualsearch,2024.1.5,None,2024-10-09 12h45.35.563134 +0530,
86,0,86,0,201.11909059993923,,201.06942939991131,5,201.11909059993923,201.11909059993923,0.03633150004316121,204.33347149996553,[-0.13333333333333333],[0.43703703703703706],[1],[0],[0],[3.2278774000005797],['target'],3,001,2024-10-09_12h45.24.096,visualsearch,2024.1.5,None,2024-10-09 12h45.35.563134 +0530,
87,0,87,0,204.4115597999189,,204.3381729000248,10,204.4115597999189,204.4115597999189,0.038202499970793724,206.61493519996293,[0.31203703703703706],[-0.05092592592592592],[1],[0],[0],[2.2388380999909714],['target'],3,001,2024-10-09_12h45.24.096,visualsearch,2024.1.5,None,2024-10-09 12h45.35.563134 +0530,
88,0,88,0,206.65110819996335,,206.6184857999906,5,206.65110819996335,206.65110819996335,0.019627899979241192,209.14880680001806,[-0.43333333333333335],[-0.3907407407407407],[1],[0],[0],[2.51067210000474],['target'],3,001,2024-10-09_12h45.24.096,visualsearch,2024.1.5,None,2024-10-09 12h45.35.563134 +0530,
89,0,89,0,209.20857749995776,,209.15365969995037,10,209.20857749995776,209.20857749995776,0.03400849993340671,212.11474579991773,[-0.20462962962962963],[0.45185185185185184],[1],[0],[0],[2.927308699931018],['target'],3,001,2024-10-09_12h45.24.096,visualsearch,2024.1.5,None,2024-10-09 12h45.35.563134 +0530,
90,0,90,0,212.17489339993335,,212.12072419992182,10,212.17489339993335,212.17489339993335,0.03526060003787279,214.11473329993896,[0.19537037037037036],[0.29259259259259257],[1],[0],[0],[1.9595620000036433],['target'],3,001,2024-10-09_12h45.24.096,visualsearch,2024.1.5,None,2024-10-09 12h45.35.563134 +0530,
91,0,91,0,214.15225149993785,,214.12056810001377,5,214.15225149993785,214.15225149993785,0.020207799971103668,215.8478582999669,[0.39444444444444443],[0.026851851851851852],[1],[0],[0],[1.7074591000564396],['target'],3,001,2024-10-09_12h45.24.096,visualsearch,2024.1.5,None,2024-10-09 12h45.35.563134 +0530,
92,0,92,0,215.88047430000734,,215.85271190002095,5,215.88047430000734,215.88047430000734,0.0174042999278754,219.58151029993314,[-0.1712962962962963],[-0.2675925925925926],[1],[0],[0],[3.7116513999644667],['target'],3,001,2024-10-09_12h45.24.096,visualsearch,2024.1.5,None,2024-10-09 12h45.35.563134 +0530,
93,0,93,0,219.63739289995283,,219.5857136999257,10,219.63739289995283,219.63739289995283,0.034589000046253204,221.56527759996243,[0.47962962962962963],[0.2962962962962963],[1],[0],[0],[1.9450355999870226],['target'],3,001,2024-10-09_12h45.24.096,visualsearch,2024.1.5,None,2024-10-09 12h45.35.563134 +0530,
94,0,94,0,221.60068299993873,,221.5707962999586,5,221.60068299993873,221.60068299993873,0.018171500065363944,224.11777419992723,[-0.3398148148148148],[-0.11388888888888889],[1],[0],[0],[2.5290698000462726],['target'],3,001,2024-10-09_12h45.24.096,visualsearch,2024.1.5,None,2024-10-09 12h45.35.563134 +0530,
95,0,95,0,224.1806858999189,,224.12240719993133,10,224.1806858999189,224.1806858999189,0.0362637999933213,226.1994673999725,[-0.4824074074074074],[0.1962962962962963],[1],[0],[0],[2.0411432998953387],['target'],3,001,2024-10-09_12h45.24.096,visualsearch,2024.1.5,None,2024-10-09 12h45.35.563134 +0530,
96,0,96,0,226.23549459991045,,226.20528090000153,5,226.23549459991045,226.23549459991045,0.01933230005670339,228.88356510002632,[-0.12129629629629629],[-0.4351851851851852],[1],[0],[0],[2.659328200039454],['target'],3,001,2024-10-09_12h45.24.096,visualsearch,2024.1.5,None,2024-10-09 12h45.35.563134 +0530,
97,0,97,0,228.91714089992456,,228.88968899997417,5,228.91714089992456,228.91714089992456,0.019301600055769086,231.31526790000498,[0.14629629629629629],[0.4722222222222222],[1],[0],[0],[2.406931099947542],['target'],3,001,2024-10-09_12h45.24.096,visualsearch,2024.1.5,None,2024-10-09 12h45.35.563134 +0530,
98,0,98,0,231.367909799912,,231.31874519994017,10,231.367909799912,231.367909799912,0.038209599908441305,232.86443509999663,[0.005555555555555556],[-0.22962962962962963],[1],[0],[0],[1.5076687999535352],['target'],3,001,2024-10-09_12h45.24.096,visualsearch,2024.1.5,None,2024-10-09 12h45.35.563134 +0530,
99,0,99,0,232.89609749999363,,232.86876729992218,5,232.89609749999363,232.89609749999363,0.018101199995726347,234.5675943000242,[0.062037037037037036],[0.3574074074074074],[1],[0],[0],[1.6807689999695867],['target'],3,001,2024-10-09_12h45.24.096,visualsearch,2024.1.5,None,2024-10-09 12h45.35.563134 +0530,
100,0,100,0,234.60319329996128,,234.57221319992095,5,234.60319329996128,234.60319329996128,0.021818500012159348,236.48176639992744,[-0.31296296296296294],[0.1638888888888889],[1],[0],[0],[1.8884877000236884],['target'],3,001,2024-10-09_12h45.24.096,visualsearch,2024.1.5,None,2024-10-09 12h45.35.563134 +0530,
101,0,101,0,236.5138993000146,,236.48668329999782,5,236.5138993000146,236.5138993000146,0.016890499973669648,238.34806539991405,[0.058333333333333334],[0.39444444444444443],[1],[0],[0],[1.8447672999463975],['target'],3,001,2024-10-09_12h45.24.096,visualsearch,2024.1.5,None,2024-10-09 12h45.35.563134 +0530,
102,0,102,0,238.39507809991483,,238.35247469996102,10,238.39507809991483,238.39507809991483,0.028778400039300323,240.4317166999681,[-0.43796296296296294],[0.3111111111111111],[1],[0],[0],[2.050392000004649],['target'],3,001,2024-10-09_12h45.24.096,visualsearch,2024.1.5,None,2024-10-09 12h45.35.563134 +0530,
103,0,103,0,240.46395619993564,,240.43620639992878,5,240.46395619993564,240.46395619993564,0.020211199996992946,242.31510010000784,[0.22314814814814815],[0.3638888888888889],[1],[0],[0],[1.8589721000753343],['target'],3,001,2024-10-09_12h45.24.096,visualsearch,2024.1.5,None,2024-10-09 12h45.35.563134 +0530,
104,0,104,0,242.36777849995997,,242.31976569991093,10,242.36777849995997,242.36777849995997,0.030912599992007017,248.88148979994003,[0.1935185185185185],[-0.37037037037037035],[1],[0],[0],[6.5308639000868425],['target'],3,001,2024-10-09_12h45.24.096,visualsearch,2024.1.5,None,2024-10-09 12h45.35.563134 +0530,
105,0,105,0,248.9345605999697,,248.88717120001093,10,248.9345605999697,248.9345605999697,0.0348701000912115,252.59927329991478,[-0.27685185185185185],[-0.062037037037037036],[1],[0],[0],[3.677749300026335],['target'],3,001,2024-10-09_12h45.24.096,visualsearch,2024.1.5,None,2024-10-09 12h45.35.563134 +0530,
106,0,106,0,252.64708599995356,,252.60254529991653,10,252.64708599995356,252.64708599995356,0.03159939998295158,254.41497359995265,[-0.4203703703703704],[-0.07314814814814814],[1],[0],[0],[1.7807699999539182],['target'],3,001,2024-10-09_12h45.24.096,visualsearch,2024.1.5,None,2024-10-09 12h45.35.563134 +0530,
107,0,107,0,254.4668614999391,,254.4197093999246,10,254.4668614999391,254.4668614999391,0.03413579997140914,257.14826559997164,[0.037037037037037035],[0.4046296296296296],[1],[0],[0],[2.694748199894093],['target'],3,001,2024-10-09_12h45.24.096,visualsearch,2024.1.5,None,2024-10-09 12h45.35.563134 +0530,
108,0,108,0,257.1809310999233,,257.15343079995364,5,257.1809310999233,257.1809310999233,0.018074600026011467,259.48418909998145,[0.0],[-0.4166666666666667],[1],[0],[0],[2.312859099940397],['target'],3,001,2024-10-09_12h45.24.096,visualsearch,2024.1.5,None,2024-10-09 12h45.35.563134 +0530,
109,0,109,0,259.5197598999366,,259.4890469999518,5,259.5197598999366,259.5197598999366,0.021414299961179495,261.83153869991656,[0.29814814814814816],[0.24814814814814815],[1],[0],[0],[2.3213431999320164],['target'],3,001,2024-10-09_12h45.24.096,visualsearch,2024.1.5,None,2024-10-09 12h45.35.563134 +0530,
110,0,110,0,261.86673899996094,,261.83584349998273,5,261.86673899996094,261.86673899996094,0.02280060003977269,264.7654055999592,[-0.05648148148148148],[0.33796296296296297],[1],[0],[0],[2.906749000074342],['target'],3,001,2024-10-09_12h45.24.096,visualsearch,2024.1.5,None,2024-10-09 12h45.35.563134 +0530,
111,0,111,0,264.8010481999954,,264.7700896000024,5,264.8010481999954,264.8010481999954,0.019885299960151315,266.8993359999731,[0.3685185185185185],[-0.40370370370370373],[1],[0],[0],[2.1097637000493705],['target'],3,001,2024-10-09_12h45.24.096,visualsearch,2024.1.5,None,2024-10-09 12h45.35.563134 +0530,
112,0,112,0,266.9276531999931,,266.9029592999723,5,266.9276531999931,266.9276531999931,0.016908699995838106,268.2980596999405,[0.10462962962962963],[0.019444444444444445],[1],[0],[0],[1.3782805000664666],['target'],3,001,2024-10-09_12h45.24.096,visualsearch,2024.1.5,None,2024-10-09 12h45.35.563134 +0530,
113,0,113,0,268.3313243999146,,268.3015423999168,5,268.3313243999146,268.3313243999146,0.019539700006134808,269.75013439997565,[0.22962962962962963],[0.03611111111111111],[1],[0],[0],[1.4289498999714851],['target'],3,001,2024-10-09_12h45.24.096,visualsearch,2024.1.5,None,2024-10-09 12h45.35.563134 +0530,
114,0,114,0,269.78518070001155,,269.75629960000515,5,269.78518070001155,269.78518070001155,0.018880699994042516,271.0169529999839,[0.28703703703703703],[-0.000925925925925926],[1],[0],[0],[1.2423858999973163],['target'],3,001,2024-10-09_12h45.24.096,visualsearch,2024.1.5,None,2024-10-09 12h45.35.563134 +0530,
115,0,115,0,271.0692279000068,,271.0214971000096,10,271.0692279000068,271.0692279000068,0.03307109989691526,273.7649684000062,[0.020370370370370372],[-0.17037037037037037],[1],[0],[0],[2.71073469996918],['target'],3,001,2024-10-09_12h45.24.096,visualsearch,2024.1.5,None,2024-10-09 12h45.35.563134 +0530,
116,0,116,0,273.7987902999157,,273.7680349999573,5,273.7987902999157,273.7987902999157,0.01912620000075549,275.44839139992837,[0.4685185185185185],[-0.14629629629629629],[1],[0],[0],[1.6612012999830768],['target'],3,001,2024-10-09_12h45.24.096,visualsearch,2024.1.5,None,2024-10-09 12h45.35.563134 +0530,
117,0,117,0,275.4834749000147,,275.4529533999739,5,275.4834749000147,275.4834749000147,0.0196146999951452,277.0978908999823,[0.013888888888888888],[-0.35555555555555557],[1],[0],[0],[1.62584540003445],['target'],3,001,2024-10-09_12h45.24.096,visualsearch,2024.1.5,None,2024-10-09 12h45.35.563134 +0530,
118,0,118,0,277.12824889994226,,277.1021324999165,5,277.12824889994226,277.12824889994226,0.017026899964548647,278.6150614999933,[0.4101851851851852],[-0.2722222222222222],[1],[0],[0],[1.4958762000314891],['target'],3,001,2024-10-09_12h45.24.096,visualsearch,2024.1.5,None,2024-10-09 12h45.35.563134 +0530,
119,0,119,0,278.6656337999739,,278.62008999998216,10,278.6656337999739,278.6656337999739,0.02903800003696233,279.9306943999836,[-0.2101851851851852],[0.26944444444444443],[1],[0],[0],[1.2817628999473527],['target'],3,001,2024-10-09_12h45.24.096,visualsearch,2024.1.5,None,2024-10-09 12h45.35.563134 +0530,
120,0,120,0,279.9826075999299,,279.93508620001376,10,279.9826075999299,279.9826075999299,0.03170629998203367,282.8170467999298,[-0.18796296296296297],[0.4722222222222222],[1],[0],[0],[2.8503797000739723],['target'],3,001,2024-10-09_12h45.24.096,visualsearch,2024.1.5,None,2024-10-09 12h45.35.563134 +0530,
121,0,121,0,282.8487285999581,,282.82180359994527,5,282.8487285999581,282.8487285999581,0.019480600021779537,284.2482338999398,[-0.3851851851851852],[0.3314814814814815],[1],[0],[0],[1.4073522000107914],['target'],3,001,2024-10-09_12h45.24.096,visualsearch,2024.1.5,None,2024-10-09 12h45.35.563134 +0530,
122,0,122,0,284.29992040002253,,284.2529103999259,10,284.29992040002253,284.29992040002253,0.03642229991964996,287.6509996999521,[-0.1259259259259259],[0.3638888888888889],[1],[0],[0],[3.3617459000088274],['target'],3,001,2024-10-09_12h45.24.096,visualsearch,2024.1.5,None,2024-10-09 12h45.35.563134 +0530,
123,0,123,0,287.70370419998653,,287.65487580001354,10,287.70370419998653,287.70370419998653,0.03381759999319911,295.11530689999927,[0.325],[-0.4046296296296296],[1],[0],[0],[7.426741300034337],['target'],3,001,2024-10-09_12h45.24.096,visualsearch,2024.1.5,None,2024-10-09 12h45.35.563134 +0530,
124,0,124,0,295.1633106999798,,295.1215913000051,10,295.1633106999798,295.1633106999798,0.032409299979917705,297.0831322999438,[0.4351851851851852],[0.046296296296296294],[1],[0],[0],[1.930001600063406],['target'],3,001,2024-10-09_12h45.24.096,visualsearch,2024.1.5,None,2024-10-09 12h45.35.563134 +0530,
125,0,125,0,297.11521949991584,,297.08643149991985,5,297.11521949991584,297.11521949991584,0.01889649999793619,299.215746199945,[-0.3907407407407407],[-0.36944444444444446],[1],[0],[0],[2.110646800021641],['target'],3,001,2024-10-09_12h45.24.096,visualsearch,2024.1.5,None,2024-10-09 12h45.35.563134 +0530,
126,0,126,0,299.2521331999451,,299.2217724999646,5,299.2521331999451,299.2521331999451,0.022962299990467727,300.8010261999443,[-0.47314814814814815],[-0.09166666666666666],[1],[0],[0],[1.556982999900356],['target'],3,001,2024-10-09_12h45.24.096,visualsearch,2024.1.5,None,2024-10-09 12h45.35.563134 +0530,
127,0,127,0,300.85572089999914,,300.8060020999983,10,300.85572089999914,300.85572089999914,0.036341400002129376,303.28285479999613,[-0.1287037037037037],[-0.4212962962962963],[1],[0],[0],[2.441036000032909],['target'],3,001,2024-10-09_12h45.24.096,visualsearch,2024.1.5,None,2024-10-09 12h45.35.563134 +0530,
128,0,128,0,303.31326359999366,,303.28730969992466,5,303.31326359999366,303.31326359999366,0.018680799985304475,304.58180519996677,[-0.19722222222222222],[0.1259259259259259],[1],[0],[0],[1.276022300007753],['target'],3,001,2024-10-09_12h45.24.096,visualsearch,2024.1.5,None,2024-10-09 12h45.35.563134 +0530,
129,0,129,0,304.6430784999393,,304.5862569999881,10,304.6430784999393,304.6430784999393,0.03324110002722591,307.63188819994684,[-0.3],[0.4861111111111111],[1],[0],[0],[3.012598400004208],[],3,001,2024-10-09_12h45.24.096,visualsearch,2024.1.5,None,2024-10-09 12h45.35.563134 +0530,
130,0,130,0,307.6676962999627,,307.6366772999754,5,307.6676962999627,307.6676962999627,0.02317539998330176,309.9166354999179,[0.45092592592592595],[0.1425925925925926],[1],[0],[0],[2.256972000002861],['target'],3,001,2024-10-09_12h45.24.096,visualsearch,2024.1.5,None,2024-10-09 12h45.35.563134 +0530,
131,0,131,0,309.96024399995804,,309.92236819991376,5,309.96024399995804,309.96024399995804,0.02282880002167076,312.41476119996514,[0.07314814814814814],[0.39351851851851855],[1],[0],[0],[2.4699688999680802],['target'],3,001,2024-10-09_12h45.24.096,visualsearch,2024.1.5,None,2024-10-09 12h45.35.563134 +0530,
132,0,132,0,312.4654081999324,,312.41996730002575,10,312.4654081999324,312.4654081999324,0.031573600019328296,314.8153247999726,[-0.06759259259259259],[-0.24537037037037038],[1],[0],[0],[2.3642099000280723],['target'],3,001,2024-10-09_12h45.24.096,visualsearch,2024.1.5,None,2024-10-09 12h45.35.563134 +0530,
133,0,133,0,314.8675442999229,,314.8195342000108,10,314.8675442999229,314.8675442999229,0.03561010002158582,316.7827534999233,[-0.18703703703703703],[-0.42592592592592593],[1],[0],[0],[1.9277394999517128],['target'],3,001,2024-10-09_12h45.24.096,visualsearch,2024.1.5,None,2024-10-09 12h45.35.563134 +0530,
134,0,134,0,316.83323699992616,,316.78610379993916,10,316.83323699992616,316.83323699992616,0.036523599992506206,320.7815753999166,[-0.4388888888888889],[-0.4759259259259259],[1],[0],[0],[3.9592219000915065],['target'],3,001,2024-10-09_12h45.24.096,visualsearch,2024.1.5,None,2024-10-09 12h45.35.563134 +0530,
135,0,135,0,320.8130698999157,,320.7868004000047,5,320.8130698999157,320.8130698999157,0.016643799957819283,323.83177579997573,[0.3712962962962963],[-0.23055555555555557],[1],[0],[0],[3.0285248999716714],['target'],3,001,2024-10-09_12h45.24.096,visualsearch,2024.1.5,None,2024-10-09 12h45.35.563134 +0530,
136,0,136,0,323.8708273000084,,323.83659269998316,5,323.8708273000084,323.8708273000084,0.021740299998782575,329.4318440000061,[-0.3398148148148148],[-0.45092592592592595],[1],[0],[0],[5.573780199978501],['target'],3,001,2024-10-09_12h45.24.096,visualsearch,2024.1.5,None,2024-10-09 12h45.35.563134 +0530,
137,0,137,0,329.47887929994613,,329.43674979999196,10,329.47887929994613,329.47887929994613,0.03152269998099655,331.947170099942,[0.075],[0.45185185185185184],[1],[0],[0],[2.4792129000416026],['target'],3,001,2024-10-09_12h45.24.096,visualsearch,2024.1.5,None,2024-10-09 12h45.35.563134 +0530,
138,0,138,0,332.0031934999861,,331.9513550000265,10,332.0031934999861,332.0031934999861,0.03448260005097836,333.74921359994914,[-0.4638888888888889],[-0.19444444444444445],[1],[0],[0],[1.7635726999724284],['target'],3,001,2024-10-09_12h45.24.096,visualsearch,2024.1.5,None,2024-10-09 12h45.35.563134 +0530,
139,0,139,0,333.80351379991043,,333.75456869998015,10,333.80351379991043,333.80351379991043,0.031373900012113154,335.4666862000013,[0.14907407407407408],[0.11203703703703703],[1],[0],[0],[1.6811736000236124],['target'],3,001,2024-10-09_12h45.24.096,visualsearch,2024.1.5,None,2024-10-09 12h45.35.563134 +0530,
140,0,140,0,335.5046267999569,,335.4730614,5,335.5046267999569,335.5046267999569,0.020358899957500398,336.94857130001765,[0.2796296296296296],[0.3962962962962963],[1],[0],[0],[1.456136399996467],['target'],3,001,2024-10-09_12h45.24.096,visualsearch,2024.1.5,None,2024-10-09 12h45.35.563134 +0530,
141,0,141,0,337.00056519999634,,336.95371549995616,10,337.00056519999634,337.00056519999634,0.030991000006906688,338.6540434999624,[-0.044444444444444446],[-0.10462962962962963],[1],[0],[0],[1.6696281000040472],['target'],3,001,2024-10-09_12h45.24.096,visualsearch,2024.1.5,None,2024-10-09 12h45.35.563134 +0530,
142,0,142,0,338.70606240001507,,338.6574604000198,10,338.70606240001507,338.70606240001507,0.028681199997663498,340.6338820999954,[-0.058333333333333334],[0.2361111111111111],[1],[0],[0],[1.9477172000333667],['target'],3,001,2024-10-09_12h45.24.096,visualsearch,2024.1.5,None,2024-10-09 12h45.35.563134 +0530,
143,0,143,0,340.6858309999807,,340.63880039996,10,340.6858309999807,340.6858309999807,0.03423079999629408,342.5008082999848,[-0.030555555555555555],[0.46111111111111114],[1],[0],[0],[1.8278535000281408],['target'],3,001,2024-10-09_12h45.24.096,visualsearch,2024.1.5,None,2024-10-09 12h45.35.563134 +0530,
144,0,144,0,342.5560920999851,,342.50700929993764,10,342.5560920999851,342.5560920999851,0.0351276999572292,344.6331167999888,[0.04722222222222222],[0.03611111111111111],[1],[0],[0],[2.0922162000788376],['target'],3,001,2024-10-09_12h45.24.096,visualsearch,2024.1.5,None,2024-10-09 12h45.35.563134 +0530,
145,0,145,0,344.6861886999104,,344.6383805000223,10,344.6861886999104,344.6861886999104,0.031360299908556044,349.3157715999987,[-0.3861111111111111],[-0.24074074074074073],[1],[0],[0],[4.646655599935912],['target'],3,001,2024-10-09_12h45.24.096,visualsearch,2024.1.5,None,2024-10-09 12h45.35.563134 +0530,
146,0,146,0,349.3464589000214,,349.3209978999803,5,349.3464589000214,349.3464589000214,0.018118100007995963,350.7838350000093,[-0.43425925925925923],[0.31296296296296294],[1],[0],[0],[1.44516600004863],['target'],3,001,2024-10-09_12h45.24.096,visualsearch,2024.1.5,None,2024-10-09 12h45.35.563134 +0530,
147,0,147,0,350.8387505999999,,350.7903708999511,10,350.8387505999999,350.8387505999999,0.03591600002255291,353.7145684999414,[0.3731481481481482],[-0.35],[1],[0],[0],[2.889091799966991],['target'],3,001,2024-10-09_12h45.24.096,visualsearch,2024.1.5,None,2024-10-09 12h45.35.563134 +0530,
148,0,148,0,353.7452295999974,,353.7187907999614,5,353.7452295999974,353.7452295999974,0.01635539997369051,355.482019099989,[0.4074074074074074],[0.23981481481481481],[1],[0],[0],[1.7470498000038788],['target'],3,001,2024-10-09_12h45.24.096,visualsearch,2024.1.5,None,2024-10-09 12h45.35.563134 +0530,
149,0,149,0,355.5362739999546,,355.48738830001093,10,355.5362739999546,355.5362739999546,0.03292089991737157,358.54971719998866,[-0.2796296296296296],[-0.44074074074074077],[1],[0],[0],[3.0294528999365866],['target'],3,001,2024-10-09_12h45.24.096,visualsearch,2024.1.5,None,2024-10-09 12h45.35.563134 +0530,
150,0,150,0,358.6068914999487,,358.55417429993395,10,358.6068914999487,358.6068914999487,0.038503100047819316,382.6982341000112,[0.12129629629629629],[0.2064814814814815],[1],[0],[0],[24.10593640001025],['target'],3,001,2024-10-09_12h45.24.096,visualsearch,2024.1.5,None,2024-10-09 12h45.35.563134 +0530,
151,0,151,0,382.7550706999609,,382.70268549991306,10,382.7550706999609,382.7550706999609,0.031630199984647334,385.86486560001504,[0.05462962962962963],[-0.41574074074074074],[1],[0],[0],[3.1307114000665024],['target'],3,001,2024-10-09_12h45.24.096,visualsearch,2024.1.5,None,2024-10-09 12h45.35.563134 +0530,
152,0,152,0,385.897160399938,,385.86932439997327,5,385.897160399938,385.897160399938,0.016426000045612454,388.3989179999335,[0.40555555555555556],[0.27037037037037037],[1],[0],[0],[2.5131980000296608],['target'],3,001,2024-10-09_12h45.24.096,visualsearch,2024.1.5,None,2024-10-09 12h45.35.563134 +0530,
153,0,153,0,388.4335473999381,,388.4035466000205,5,388.4335473999381,388.4335473999381,0.021576200029812753,390.4984102000017,[0.16296296296296298],[0.3675925925925926],[1],[0],[0],[2.0735847000032663],['target'],3,001,2024-10-09_12h45.24.096,visualsearch,2024.1.5,None,2024-10-09 12h45.35.563134 +0530,
154,0,154,0,390.52878589998,,390.50172429997474,5,390.52878589998,390.52878589998,0.015865699970163405,392.0671358000254,[0.0787037037037037],[-0.04814814814814815],[1],[0],[0],[1.5494011000264436],['target'],3,001,2024-10-09_12h45.24.096,visualsearch,2024.1.5,None,2024-10-09 12h45.35.563134 +0530,
155,0,155,0,392.1087392999325,,392.07312989991624,5,392.1087392999325,392.1087392999325,0.021162400022149086,395.08188469999004,[-0.42407407407407405],[0.1574074074074074],[1],[0],[0],[2.9880007000174373],['target'],3,001,2024-10-09_12h45.24.096,visualsearch,2024.1.5,None,2024-10-09 12h45.35.563134 +0530,
156,0,156,0,395.1119923000224,,395.08644939993974,5,395.1119923000224,395.1119923000224,0.01714629994239658,396.86491010000464,[-0.275],[-0.08055555555555556],[1],[0],[0],[1.7613731999881566],['target'],3,001,2024-10-09_12h45.24.096,visualsearch,2024.1.5,None,2024-10-09 12h45.35.563134 +0530,
157,0,157,0,396.9205122999847,,396.8695998999756,10,396.9205122999847,396.9205122999847,0.03415079996921122,398.7646030000178,[-0.2490740740740741],[0.26296296296296295],[1],[0],[0],[1.8613588000880554],['target'],3,001,2024-10-09_12h45.24.096,visualsearch,2024.1.5,None,2024-10-09 12h45.35.563134 +0530,
158,0,158,0,398.80158680002205,,398.76867389993276,5,398.80158680002205,398.80158680002205,0.018040399998426437,400.4649552999763,[-0.11296296296296296],[-0.19074074074074074],[1],[0],[0],[1.678345900028944],['target'],3,001,2024-10-09_12h45.24.096,visualsearch,2024.1.5,None,2024-10-09 12h45.35.563134 +0530,
159,0,159,0,400.49699120002333,,400.469320199918,5,400.49699120002333,400.49699120002333,0.016880199895240366,402.56664899992757,[-0.23796296296296296],[-0.3675925925925926],[1],[0],[0],[2.0804587999591604],['target'],3,001,2024-10-09_12h45.24.096,visualsearch,2024.1.5,None,2024-10-09 12h45.35.563134 +0530,
160,0,160,0,402.6320461999858,,402.57133770000655,10,402.6320461999858,402.6320461999858,0.04303009994328022,407.0481906000059,[0.016666666666666666],[0.44166666666666665],[1],[0],[0],[4.434259000001475],['target'],3,001,2024-10-09_12h45.24.096,visualsearch,2024.1.5,None,2024-10-09 12h45.35.563134 +0530,
161,0,161,0,407.07955589995254,,407.0538635000121,5,407.07955589995254,407.07955589995254,0.017376400064677,409.0504705000203,[0.2898148148148148],[0.17962962962962964],[1],[0],[0],[1.979541699984111],['target'],3,001,2024-10-09_12h45.24.096,visualsearch,2024.1.5,None,2024-10-09 12h45.35.563134 +0530,
162,0,162,0,409.08970050001517,,409.05527749995235,5,409.08970050001517,409.08970050001517,0.023412700043991208,411.18194009992294,[-0.4740740740740741],[0.225],[1],[0],[0],[2.1036765999160707],['target'],3,001,2024-10-09_12h45.24.096,visualsearch,2024.1.5,None,2024-10-09 12h45.35.563134 +0530,
163,0,163,0,411.23725939996075,,411.18644319998566,10,411.23725939996075,411.23725939996075,0.037458900013007224,414.59884210000746,[0.39444444444444443],[0.16296296296296298],[1],[0],[0],[3.3750758999958634],['target'],3,001,2024-10-09_12h45.24.096,visualsearch,2024.1.5,None,2024-10-09 12h45.35.563134 +0530,
164,0,164,0,414.6310784999514,,414.605442799977,5,414.6310784999514,414.6310784999514,0.016981200082227588,416.7656293999171,[0.36666666666666664],[-0.044444444444444446],[1],[0],[0],[2.143607300007716],['target'],3,001,2024-10-09_12h45.24.096,visualsearch,2024.1.5,None,2024-10-09 12h45.35.563134 +0530,
165,0,165,0,416.81962959992234,,416.7714705999242,10,416.81962959992234,416.81962959992234,0.034643699997104704,418.9648496999871,[-0.29444444444444445],[-0.1648148148148148],[1],[0],[0],[2.1589931999333203],['target'],3,001,2024-10-09_12h45.24.096,visualsearch,2024.1.5,None,2024-10-09 12h45.35.563134 +0530,
166,0,166,0,419.0216232999228,,418.9703109000111,10,419.0216232999228,419.0216232999228,0.03398940002080053,420.61491419991944,[0.19722222222222222],[0.016666666666666666],[1],[0],[0],[1.6111337000038475],['target'],3,001,2024-10-09_12h45.24.096,visualsearch,2024.1.5,None,2024-10-09 12h45.35.563134 +0530,
167,0,167,0,420.6641216999851,,420.6190163999563,10,420.6641216999851,420.6641216999851,0.02892369998153299,422.64891109999735,[-0.15648148148148147],[0.03333333333333333],[1],[0],[0],[2.000987199950032],['target'],3,001,2024-10-09_12h45.24.096,visualsearch,2024.1.5,None,2024-10-09 12h45.35.563134 +0530,
168,0,168,0,422.6798040999565,,422.6542419999605,5,422.6798040999565,422.6798040999565,0.01781770004890859,424.48180309997406,[0.2111111111111111],[0.4685185185185185],[1],[0],[0],[1.8099716999568045],['target'],3,001,2024-10-09_12h45.24.096,visualsearch,2024.1.5,None,2024-10-09 12h45.35.563134 +0530,
169,0,169,0,424.55042019998655,,424.486678199959,10,424.55042019998655,424.55042019998655,0.045583800063468516,426.61463839991484,[0.3],[0.16666666666666666],[1],[0],[0],[2.0826069000177085],['target'],3,001,2024-10-09_12h45.24.096,visualsearch,2024.1.5,None,2024-10-09 12h45.35.563134 +0530,
170,0,170,0,426.6687136000255,,426.61806160002016,10,426.6687136000255,426.6687136000255,0.034796199994161725,436.565150899929,[-0.017592592592592594],[-0.23055555555555557],[1],[0],[0],[9.912441899999976],['target'],3,001,2024-10-09_12h45.24.096,visualsearch,2024.1.5,None,2024-10-09 12h45.35.563134 +0530,
171,0,171,0,436.6238139999332,,436.57094419992063,10,436.6238139999332,436.6238139999332,0.033797900076024234,438.8502642000094,[-0.35833333333333334],[0.002777777777777778],[1],[0],[0],[2.245688599999994],['target'],3,001,2024-10-09_12h45.24.096,visualsearch,2024.1.5,None,2024-10-09 12h45.35.563134 +0530,
172,0,172,0,438.8829169999808,,438.8555211999919,5,438.8829169999808,438.8829169999808,0.017123600002378225,440.4652384999208,[-0.10740740740740741],[0.2462962962962963],[1],[0],[0],[1.5929661999689415],['target'],3,001,2024-10-09_12h45.24.096,visualsearch,2024.1.5,None,2024-10-09 12h45.35.563134 +0530,
173,0,173,0,440.5224796999246,,440.47032959992066,10,440.5224796999246,440.5224796999246,0.034617100027389824,443.448015699978,[0.29444444444444445],[0.33611111111111114],[1],[0],[0],[2.943439200054854],['target'],3,001,2024-10-09_12h45.24.096,visualsearch,2024.1.5,None,2024-10-09 12h45.35.563134 +0530,
174,0,174,0,443.51330479991157,,443.45211509999353,10,443.51330479991157,443.51330479991157,0.04470920003950596,445.4008868000237,[0.1925925925925926],[0.027777777777777776],[1],[0],[0],[1.9041648999555036],['target'],3,001,2024-10-09_12h45.24.096,visualsearch,2024.1.5,None,2024-10-09 12h45.35.563134 +0530,
175,0,175,0,445.44932729995344,,445.40524110000115,10,445.44932729995344,445.44932729995344,0.029884600080549717,450.0652975999983,[0.225],[-0.34074074074074073],[1],[0],[0],[4.630561799975112],['target'],3,001,2024-10-09_12h45.24.096,visualsearch,2024.1.5,None,2024-10-09 12h45.35.563134 +0530,
176,0,176,0,450.0989039000124,,450.0703141000122,5,450.0989039000124,450.0989039000124,0.020549400011077523,452.16784160002135,[-0.26944444444444443],[0.22592592592592592],[1],[0],[0],[2.0770671000937],['target'],3,001,2024-10-09_12h45.24.096,visualsearch,2024.1.5,None,2024-10-09 12h45.35.563134 +0530,
177,0,177,0,452.20345189992804,,452.17251780000515,5,452.20345189992804,452.20345189992804,0.022556700045242906,454.1001965999603,[0.3537037037037037],[0.19074074074074074],[1],[0],[0],[1.905325699946843],['target'],3,001,2024-10-09_12h45.24.096,visualsearch,2024.1.5,None,2024-10-09 12h45.35.563134 +0530,
178,0,178,0,454.1336753999349,,454.1046697999118,5,454.1336753999349,454.1336753999349,0.021315300022251904,456.6821577999508,[0.4703703703703704],[-0.24351851851851852],[1],[0],[0],[2.556391500052996],['target'],3,001,2024-10-09_12h45.24.096,visualsearch,2024.1.5,None,2024-10-09 12h45.35.563134 +0530,
179,0,179,0,456.7369122999953,,456.68718259991147,10,456.7369122999953,456.7369122999953,0.03536310000345111,462.89812819997314,[-0.34814814814814815],[-0.46296296296296297],[1],[0],[0],[6.175887800054625],['target'],3,001,2024-10-09_12h45.24.096,visualsearch,2024.1.5,None,2024-10-09 12h45.35.563134 +0530,
180,0,180,0,462.93022270000074,,462.90348380000796,5,462.93022270000074,462.93022270000074,0.017164799966849387,464.9647890999913,[-0.46111111111111114],[0.06666666666666667],[1],[0],[0],[2.044485699967481],['target'],3,001,2024-10-09_12h45.24.096,visualsearch,2024.1.5,None,2024-10-09 12h45.35.563134 +0530,
181,0,181,0,464.9940945999697,,464.96941839996725,5,464.9940945999697,464.9940945999697,0.016918000066652894,468.0479105999693,[-0.39166666666666666],[-0.4166666666666667],[1],[0],[0],[3.0623791000107303],['target'],3,001,2024-10-09_12h45.24.096,visualsearch,2024.1.5,None,2024-10-09 12h45.35.563134 +0530,
182,0,182,0,468.0768688999815,,468.0531144000124,5,468.0768688999815,468.0768688999815,0.017388199921697378,475.6330695999786,[-0.03981481481481482],[0.03796296296296296],[1],[0],[0],[7.563096600002609],['target'],3,001,2024-10-09_12h45.24.096,visualsearch,2024.1.5,None,2024-10-09 12h45.35.563134 +0530,
183,0,183,0,475.6826996000018,,475.63704069994856,10,475.6826996000018,475.6826996000018,0.0333051000488922,478.9314316000091,[-0.3990740740740741],[0.38425925925925924],[1],[0],[0],[3.261274400050752],['target'],3,001,2024-10-09_12h45.24.096,visualsearch,2024.1.5,None,2024-10-09 12h45.35.563134 +0530,
184,0,184,0,478.97593129996676,,478.9367100999225,10,478.97593129996676,478.97593129996676,0.028609200031496584,497.1315650999313,[-0.13518518518518519],[-0.35462962962962963],[1],[0],[0],[18.16635319998022],['target'],3,001,2024-10-09_12h45.24.096,visualsearch,2024.1.5,None,2024-10-09 12h45.35.563134 +0530,
185,0,185,0,497.1815601999406,,497.1356512999628,10,497.1815601999406,497.1815601999406,0.03396589995827526,500.0143720000051,[0.3277777777777778],[0.05740740740740741],[1],[0],[0],[2.8450374000240117],['target'],3,001,2024-10-09_12h45.24.096,visualsearch,2024.1.5,None,2024-10-09 12h45.35.563134 +0530,
186,0,186,0,500.06058889999986,,500.0182031999575,10,500.06058889999986,500.06058889999986,0.030313199968077242,501.6817569999257,[0.23981481481481481],[-0.32685185185185184],[1],[0],[0],[1.633231700048782],['target'],3,001,2024-10-09_12h45.24.096,visualsearch,2024.1.5,None,2024-10-09 12h45.35.563134 +0530,
187,0,187,0,501.7366732999217,,501.6864249999635,10,501.7366732999217,501.7366732999217,0.03378910000901669,503.71539439994376,[0.31666666666666665],[0.375],[1],[0],[0],[1.9955094000324607],['target'],3,001,2024-10-09_12h45.24.096,visualsearch,2024.1.5,None,2024-10-09 12h45.35.563134 +0530,
188,0,188,0,503.7528169999132,,503.7216389999958,5,503.7528169999132,503.7528169999132,0.019893900025635958,506.0654657999985,[0.04259259259259259],[-0.23425925925925925],[1],[0],[0],[2.3242173999315128],['target'],3,001,2024-10-09_12h45.24.096,visualsearch,2024.1.5,None,2024-10-09 12h45.35.563134 +0530,
189,0,189,0,506.09757490002085,,506.07134749996476,5,506.09757490002085,506.09757490002085,0.01871849992312491,507.61495949991513,[0.3194444444444444],[0.040740740740740744],[1],[0],[0],[1.525207499973476],['target'],3,001,2024-10-09_12h45.24.096,visualsearch,2024.1.5,None,2024-10-09 12h45.35.563134 +0530,
190,0,190,0,507.67144069995265,,507.61954260000493,10,507.67144069995265,507.67144069995265,0.034954900038428605,509.14946969994344,[-0.3537037037037037],[0.05462962962962963],[1],[0],[0],[1.4952789000235498],['target'],3,001,2024-10-09_12h45.24.096,visualsearch,2024.1.5,None,2024-10-09 12h45.35.563134 +0530,
191,0,191,0,509.179039599956,,509.15406159998383,5,509.179039599956,509.179039599956,0.017436599940992892,510.6988691999577,[0.2814814814814815],[0.3111111111111111],[1],[0],[0],[1.527574000065215],['target'],3,001,2024-10-09_12h45.24.096,visualsearch,2024.1.5,None,2024-10-09 12h45.35.563134 +0530,
192,0,192,0,510.74991989997216,,510.7043875999516,10,510.74991989997216,510.74991989997216,0.032807799987494946,514.5157406999497,[-0.4537037037037037],[-0.41944444444444445],[1],[0],[0],[3.7786879999330267],['target'],3,001,2024-10-09_12h45.24.096,visualsearch,2024.1.5,None,2024-10-09 12h45.35.563134 +0530,
193,0,193,0,514.5547902999679,,514.5205485000042,5,514.5547902999679,514.5547902999679,0.02268769999500364,516.3984429999255,[-0.04537037037037037],[0.16944444444444445],[1],[0],[0],[1.8556058999383822],['target'],3,001,2024-10-09_12h45.24.096,visualsearch,2024.1.5,None,2024-10-09 12h45.35.563134 +0530,
194,0,194,0,516.4493687999202,,516.4038921999745,10,516.4493687999202,516.4493687999202,0.030910999979823828,520.2814291999675,[-0.24351851851851852],[0.44537037037037036],[1],[0],[0],[3.8473590998910367],['target'],3,001,2024-10-09_12h45.24.096,visualsearch,2024.1.5,None,2024-10-09 12h45.35.563134 +0530,
195,0,195,0,520.3167727999389,,520.2846825999441,5,520.3167727999389,520.3167727999389,0.019501600065268576,523.4010794999776,[0.4981481481481482],[0.06574074074074074],[1],[0],[0],[3.0967554999515414],['target'],3,001,2024-10-09_12h45.24.096,visualsearch,2024.1.5,None,2024-10-09 12h45.35.563134 +0530,
196,0,196,0,523.4572064999957,,523.4080684999935,10,523.4572064999957,523.4572064999957,0.03646710002794862,526.2647013999522,[-0.16574074074074074],[-0.3277777777777778],[1],[0],[0],[2.8212946000276133],['target'],3,001,2024-10-09_12h45.24.096,visualsearch,2024.1.5,None,2024-10-09 12h45.35.563134 +0530,
197,0,197,0,526.3141487999819,,526.2679577999515,10,526.3141487999819,526.3141487999819,0.03312529996037483,530.4322723000078,[-0.48703703703703705],[-0.06296296296296296],[1],[0],[0],[4.131219199975021],['target'],3,001,2024-10-09_12h45.24.096,visualsearch,2024.1.5,None,2024-10-09 12h45.35.563134 +0530,
198,0,198,0,530.4790127999149,,530.4358758999733,10,530.4790127999149,530.4790127999149,0.03055329993367195,533.1482825999847,[0.19722222222222222],[0.3333333333333333],[1],[0],[0],[2.6822019000537694],['target'],3,001,2024-10-09_12h45.24.096,visualsearch,2024.1.5,None,2024-10-09 12h45.35.563134 +0530,
199,0,199,0,533.1986873999704,,533.1525459999684,10,533.1986873999704,533.1986873999704,0.029900799971073866,534.7505532000214,[0.05740740740740741],[0.34444444444444444],[1],[0],[0],[1.568070700042881],['target'],3,001,2024-10-09_12h45.24.096,visualsearch,2024.1.5,None,2024-10-09 12h45.35.563134 +0530,
