trials.thisRepN,trials.thisTrialN,trials.thisN,trials.thisIndex,thisRow.t,notes,trial.started,num_distr,fixation.started,target.started,mouse.started,trial.stopped,mouse.x,mouse.y,mouse.leftButton,mouse.midButton,mouse.rightButton,mouse.time,mouse.clicked_name,participant,session,date,expName,psychopyVersion,frameRate,expStart,
0,0,0,0,0.05933069996535778,,0.01725469995290041,5,0.05933069996535778,0.05933069996535778,0.042770299944095314,2.4623088999651372,[-0.10092592592592593],[0.24351851851851852],[1],[0],[0],[2.418411200051196],['target'],4,001,2024-10-09_12h55.42.840,visualsearch,2024.1.5,None,2024-10-09 12h55.57.467999 +0530,
1,0,1,0,2.4912862998899072,,2.4675241999793798,5,2.4912862998899072,2.4912862998899072,0.01642799994442612,4.200669399928302,[-0.15555555555555556],[-0.16574074074074074],[1],[0],[0],[1.7167733000824228],['target'],4,001,2024-10-09_12h55.42.840,visualsearch,2024.1.5,None,2024-10-09 12h55.57.467999 +0530,
2,0,2,0,4.2346559999277815,,4.203835399937816,5,4.2346559999277815,4.2346559999277815,0.02329070004634559,5.917745199985802,[0.21574074074074073],[0.007407407407407408],[1],[0],[0],[1.690608200035058],['target'],4,001,2024-10-09_12h55.42.840,visualsearch,2024.1.5,None,2024-10-09 12h55.57.467999 +0530,
3,0,3,0,5.971381099894643,,5.922468699980527,10,5.971381099894643,5.971381099894643,0.03578559996094555,7.784411099972203,[0.05092592592592592],[0.06759259259259259],[1],[0],[0],[1.8264466000255197],['target'],4,001,2024-10-09_12h55.42.840,visualsearch,2024.1.5,None,2024-10-09 12h55.57.467999 +0530,
4,0,4,0,7.816250099916942,,7.790618099970743,5,7.816250099916942,7.816250099916942,0.01823239994700998,9.436872499994934,[0.2462962962962963],[0.2388888888888889],[1],[0],[0],[1.62821510003414],['target'],4,001,2024-10-09_12h55.42.840,visualsearch,2024.1.5,None,2024-10-09 12h55.57.467999 +0530,
5,0,5,0,9.489498999901116,,9.443264699890278,10,9.489498999901116,9.489498999901116,0.036828099982813,11.13656169991009,[0.32685185185185184],[0.24166666666666667],[1],[0],[0],[1.6570009000133723],['target'],4,001,2024-10-09_12h55.42.840,visualsearch,2024.1.5,None,2024-10-09 12h55.57.467999 +0530,
6,0,6,0,11.196494399919175,,11.140871599898674,10,11.196494399919175,11.196494399919175,0.03146070009097457,15.102461899979971,[-0.14722222222222223],[-0.3611111111111111],[1],[0],[0],[3.9300867000129074],['target'],4,001,2024-10-09_12h55.42.840,visualsearch,2024.1.5,None,2024-10-09 12h55.57.467999 +0530,
7,0,7,0,15.135013699997216,,15.1068598999409,5,15.135013699997216,15.135013699997216,0.021294900099746883,17.068055299925618,[-0.4675925925925926],[-0.1787037037037037],[1],[0],[0],[1.9401621000142768],['target'],4,001,2024-10-09_12h55.42.840,visualsearch,2024.1.5,None,2024-10-09 12h55.57.467999 +0530,
8,0,8,0,17.117006399901584,,17.07348619995173,10,17.117006399901584,17.117006399901584,0.03135259996633977,19.367612199974246,[0.24722222222222223],[0.3685185185185185],[1],[0],[0],[2.2631336000049487],['target'],4,001,2024-10-09_12h55.42.840,visualsearch,2024.1.5,None,2024-10-09 12h55.57.467999 +0530,
9,0,9,0,19.393757099984214,,19.37134949991014,5,19.393757099984214,19.393757099984214,0.015571999945677817,21.03750169998966,[0.06574074074074074],[0.4074074074074074],[1],[0],[0],[1.6502601000247523],['target'],4,001,2024-10-09_12h55.42.840,visualsearch,2024.1.5,None,2024-10-09 12h55.57.467999 +0530,
10,0,10,0,21.06914259993937,,21.04248499998357,5,21.06914259993937,21.06914259993937,0.019590099924243987,23.017995899892412,[0.06481481481481481],[-0.35462962962962963],[1],[0],[0],[1.956197899999097],['target'],4,001,2024-10-09_12h55.42.840,visualsearch,2024.1.5,None,2024-10-09 12h55.57.467999 +0530,
11,0,11,0,23.05233369988855,,23.022729099960998,5,23.05233369988855,23.05233369988855,0.02206529991235584,26.47046799992677,[-0.38796296296296295],[0.475],[1],[0],[0],[3.425970199983567],['target'],4,001,2024-10-09_12h55.42.840,visualsearch,2024.1.5,None,2024-10-09 12h55.57.467999 +0530,
12,0,12,0,26.506598399952054,,26.476495699957013,5,26.506598399952054,26.506598399952054,0.02278979995753616,28.26776609988883,[0.03981481481481482],[-0.18981481481481483],[1],[0],[0],[1.7694234000518918],['target'],4,001,2024-10-09_12h55.42.840,visualsearch,2024.1.5,None,2024-10-09 12h55.57.467999 +0530,
13,0,13,0,28.303740899893455,,28.27228949998971,5,28.303740899893455,28.303740899893455,0.021476099966093898,30.98675049992744,[0.3685185185185185],[0.28888888888888886],[1],[0],[0],[2.6930851999204606],['target'],4,001,2024-10-09_12h55.42.840,visualsearch,2024.1.5,None,2024-10-09 12h55.57.467999 +0530,
14,0,14,0,31.03483299992513,,30.99340489995666,10,31.03483299992513,31.03483299992513,0.031097099999897182,33.617806599941105,[-0.4777777777777778],[-0.18888888888888888],[1],[0],[0],[2.5938394999830052],['target'],4,001,2024-10-09_12h55.42.840,visualsearch,2024.1.5,None,2024-10-09 12h55.57.467999 +0530,
15,0,15,0,33.648170699947514,,33.62195679999422,5,33.648170699947514,33.648170699947514,0.018762600026093423,36.63691939995624,[0.41388888888888886],[-0.024074074074074074],[1],[0],[0],[2.996501600020565],['target'],4,001,2024-10-09_12h55.42.840,visualsearch,2024.1.5,None,2024-10-09 12h55.57.467999 +0530,
16,0,16,0,36.66817909991369,,36.64380159997381,5,36.66817909991369,36.66817909991369,0.017704700003378093,38.43448509997688,[0.42314814814814816],[-0.3],[1],[0],[0],[1.7736500999890268],['target'],4,001,2024-10-09_12h55.42.840,visualsearch,2024.1.5,None,2024-10-09 12h55.57.467999 +0530,
17,0,17,0,38.485902499989606,,38.43957799999043,10,38.485902499989606,38.485902499989606,0.0338738999562338,41.06855949992314,[-0.009259259259259259],[0.062037037037037036],[1],[0],[0],[2.5955442999256775],['target'],4,001,2024-10-09_12h55.42.840,visualsearch,2024.1.5,None,2024-10-09 12h55.57.467999 +0530,
18,0,18,0,41.09721129992977,,41.07236349990126,5,41.09721129992977,41.09721129992977,0.017650100053288043,42.88521639991086,[0.2175925925925926],[-0.2212962962962963],[1],[0],[0],[1.7950769999297336],['target'],4,001,2024-10-09_12h55.42.840,visualsearch,2024.1.5,None,2024-10-09 12h55.57.467999 +0530,
19,0,19,0,42.93236419989262,,42.89065799990203,10,42.93236419989262,42.93236419989262,0.031135800061747432,44.80111429991666,[0.425],[0.3990740740740741],[1],[0],[0],[1.8795237999875098],['target'],4,001,2024-10-09_12h55.42.840,visualsearch,2024.1.5,None,2024-10-09 12h55.57.467999 +0530,
20,0,20,0,44.84578979993239,,44.80710439989343,5,44.84578979993239,44.84578979993239,0.0176841999636963,46.486586099956185,[-0.43148148148148147],[0.2759259259259259],[1],[0],[0],[1.6621448000660166],['target'],4,001,2024-10-09_12h55.42.840,visualsearch,2024.1.5,None,2024-10-09 12h55.57.467999 +0530,
21,0,21,0,46.53565199999139,,46.49251699994784,10,46.53565199999139,46.53565199999139,0.03229559992905706,48.30101789999753,[-0.44814814814814813],[0.1675925925925926],[1],[0],[0],[1.7768029000144452],['target'],4,001,2024-10-09_12h55.42.840,visualsearch,2024.1.5,None,2024-10-09 12h55.57.467999 +0530,
22,0,22,0,48.3474256999325,,48.3053412999725,10,48.3474256999325,48.3474256999325,0.031531999935396016,51.0179278999567,[0.3787037037037037],[0.46111111111111114],[1],[0],[0],[2.6812435999745503],['target'],4,001,2024-10-09_12h55.42.840,visualsearch,2024.1.5,None,2024-10-09 12h55.57.467999 +0530,
23,0,23,0,51.050350699923,,51.0231168998871,5,51.050350699923,51.050350699923,0.02015699993353337,58.25198029994499,[-0.26666666666666666],[-0.425],[1],[0],[0],[7.208806699956767],['target'],4,001,2024-10-09_12h55.42.840,visualsearch,2024.1.5,None,2024-10-09 12h55.57.467999 +0530,
24,0,24,0,58.30053939996287,,58.25740089989267,10,58.30053939996287,58.30053939996287,0.032201599911786616,60.88579499989282,[0.1259259259259259],[0.34814814814814815],[1],[0],[0],[2.5966036999598145],['target'],4,001,2024-10-09_12h55.42.840,visualsearch,2024.1.5,None,2024-10-09 12h55.57.467999 +0530,
25,0,25,0,60.93467599991709,,60.89020509994589,10,60.93467599991709,60.93467599991709,0.03349449997767806,65.6374573999783,[-0.43148148148148147],[0.375],[1],[0],[0],[4.713720200001262],['target'],4,001,2024-10-09_12h55.42.840,visualsearch,2024.1.5,None,2024-10-09 12h55.57.467999 +0530,
26,0,26,0,65.68892200000118,,65.64143089996651,10,65.68892200000118,65.68892200000118,0.035964899929240346,70.68651119992137,[-0.44722222222222224],[0.4648148148148148],[1],[0],[0],[5.009257799945772],['target'],4,001,2024-10-09_12h55.42.840,visualsearch,2024.1.5,None,2024-10-09 12h55.57.467999 +0530,
27,0,27,0,70.8250057999976,,70.69199989992194,10,70.8250057999976,70.8250057999976,0.12254160002339631,74.71791309991386,[-0.4046296296296296],[-0.4305555555555556],[1],[0],[0],[3.9040964000159875],['target'],4,001,2024-10-09_12h55.42.840,visualsearch,2024.1.5,None,2024-10-09 12h55.57.467999 +0530,
28,0,28,0,74.74849239992909,,74.72374069993384,5,74.74849239992909,74.74849239992909,0.018839300028048456,76.71975429996382,[-0.2074074074074074],[-0.275],[1],[0],[0],[1.9779442999279127],['target'],4,001,2024-10-09_12h55.42.840,visualsearch,2024.1.5,None,2024-10-09 12h55.57.467999 +0530,
29,0,29,0,76.77339159999974,,76.72458189993631,10,76.77339159999974,76.77339159999974,0.03537940001115203,78.40089639998041,[-0.4425925925925926],[0.03981481481481482],[1],[0],[0],[1.6414515000069514],['target'],4,001,2024-10-09_12h55.42.840,visualsearch,2024.1.5,None,2024-10-09 12h55.57.467999 +0530,
30,0,30,0,78.43233509990387,,78.40630199993029,5,78.43233509990387,78.43233509990387,0.01967399998102337,79.75381969998125,[0.17407407407407408],[0.1175925925925926],[1],[0],[0],[1.3283735000295565],['target'],4,001,2024-10-09_12h55.42.840,visualsearch,2024.1.5,None,2024-10-09 12h55.57.467999 +0530,
31,0,31,0,79.79022579989396,,79.75994909997098,5,79.79022579989396,79.79022579989396,0.02244009997230023,81.85266479989514,[0.2814814814814815],[-0.4425925925925926],[1],[0],[0],[2.0708050000248477],['target'],4,001,2024-10-09_12h55.42.840,visualsearch,2024.1.5,None,2024-10-09 12h55.57.467999 +0530,
32,0,32,0,81.8833472999977,,81.85638049989939,5,81.8833472999977,81.8833472999977,0.01933929999358952,83.5674920999445,[0.18981481481481483],[0.3435185185185185],[1],[0],[0],[1.6920130000216886],['target'],4,001,2024-10-09_12h55.42.840,visualsearch,2024.1.5,None,2024-10-09 12h55.57.467999 +0530,
33,0,33,0,83.61842839990277,,83.57145229994785,10,83.61842839990277,83.61842839990277,0.03454619995318353,86.15081359993201,[0.06944444444444445],[-0.44166666666666665],[1],[0],[0],[2.5449471999891102],['target'],4,001,2024-10-09_12h55.42.840,visualsearch,2024.1.5,None,2024-10-09 12h55.57.467999 +0530,
34,0,34,0,86.18117939995136,,86.15422719996423,5,86.18117939995136,86.18117939995136,0.018953799968585372,88.1845496998867,[-0.3074074074074074],[-0.19166666666666668],[1],[0],[0],[2.0114512000000104],['target'],4,001,2024-10-09_12h55.42.840,visualsearch,2024.1.5,None,2024-10-09 12h55.57.467999 +0530,
35,0,35,0,88.236094999942,,88.19028909993358,10,88.236094999942,88.236094999942,0.03327580005861819,90.48456069990061,[0.26296296296296295],[-0.2361111111111111],[1],[0],[0],[2.2612153999507427],['target'],4,001,2024-10-09_12h55.42.840,visualsearch,2024.1.5,None,2024-10-09 12h55.57.467999 +0530,
36,0,36,0,90.51245919999201,,90.48881479992997,5,90.51245919999201,90.51245919999201,0.016575100016780198,91.88627559994347,[0.19722222222222222],[-0.08518518518518518],[1],[0],[0],[1.3810097000095993],['target'],4,001,2024-10-09_12h55.42.840,visualsearch,2024.1.5,None,2024-10-09 12h55.57.467999 +0530,
37,0,37,0,91.92043239995837,,91.89291499997489,5,91.92043239995837,91.92043239995837,0.020590799977071583,93.6201728999149,[-0.09537037037037037],[0.23981481481481481],[1],[0],[0],[1.7072477999608964],['target'],4,001,2024-10-09_12h55.42.840,visualsearch,2024.1.5,None,2024-10-09 12h55.57.467999 +0530,
38,0,38,0,93.67141299997456,,93.62674549990334,5,93.67141299997456,93.67141299997456,0.020036600064486265,95.08714719989803,[-0.3351851851851852],[-0.05740740740740741],[1],[0],[0],[1.4404831998981535],['target'],4,001,2024-10-09_12h55.42.840,visualsearch,2024.1.5,None,2024-10-09 12h55.57.467999 +0530,
39,0,39,0,95.13902269990649,,95.09435209992807,10,95.13902269990649,95.13902269990649,0.034905800013802946,97.60243519989308,[0.29444444444444445],[0.4898148148148148],[1],[0],[0],[2.4740263000130653],['target'],4,001,2024-10-09_12h55.42.840,visualsearch,2024.1.5,None,2024-10-09 12h55.57.467999 +0530,
40,0,40,0,97.65086669998709,,97.60888849990442,10,97.65086669998709,97.65086669998709,0.031238700030371547,99.55122709996067,[0.44722222222222224],[0.26851851851851855],[1],[0],[0],[1.9115879000164568],['target'],4,001,2024-10-09_12h55.42.840,visualsearch,2024.1.5,None,2024-10-09 12h55.57.467999 +0530,
41,0,41,0,99.59313659998588,,99.55513359990437,5,99.59313659998588,99.59313659998588,0.016425999929197133,100.63478119997308,[0.037037037037037035],[0.18055555555555555],[1],[0],[0],[1.0634506000205874],['target'],4,001,2024-10-09_12h55.42.840,visualsearch,2024.1.5,None,2024-10-09 12h55.57.467999 +0530,
42,0,42,0,100.66648049990181,,100.64048959990032,5,100.66648049990181,100.66648049990181,0.019140399992465973,103.08678729995154,[0.06759259259259259],[0.42314814814814816],[1],[0],[0],[2.4274726000148803],['target'],4,001,2024-10-09_12h55.42.840,visualsearch,2024.1.5,None,2024-10-09 12h55.57.467999 +0530,
43,0,43,0,103.13557079993188,,103.09197579999454,5,103.13557079993188,103.13557079993188,0.01998970005661249,105.53659769997466,[-0.19722222222222222],[-0.4462962962962963],[1],[0],[0],[2.424973899964243],['target'],4,001,2024-10-09_12h55.42.840,visualsearch,2024.1.5,None,2024-10-09 12h55.57.467999 +0530,
44,0,44,0,105.57373139995616,,105.54299609991722,5,105.57373139995616,105.57373139995616,0.022437999956309795,108.25182439992204,[-0.40185185185185185],[-0.20462962962962963],[1],[0],[0],[2.687143399962224],['target'],4,001,2024-10-09_12h55.42.840,visualsearch,2024.1.5,None,2024-10-09 12h55.57.467999 +0530,
45,0,45,0,108.28327349992469,,108.257155799889,5,108.28327349992469,108.28327349992469,0.019313600030727684,110.58548069989774,[-0.11574074074074074],[0.38333333333333336],[1],[0],[0],[2.3093149999622256],['target'],4,001,2024-10-09_12h55.42.840,visualsearch,2024.1.5,None,2024-10-09 12h55.57.467999 +0530,
46,0,46,0,110.63272369990591,,110.58907979994547,10,110.63272369990591,110.63272369990591,0.03197570005431771,112.68468489998486,[0.4722222222222222],[0.24814814814814815],[1],[0],[0],[2.0635344000766054],['target'],4,001,2024-10-09_12h55.42.840,visualsearch,2024.1.5,None,2024-10-09 12h55.57.467999 +0530,
47,0,47,0,112.7305840998888,,112.68867229996249,10,112.7305840998888,112.7305840998888,0.030924299964681268,114.4182571999263,[0.3074074074074074],[0.4564814814814815],[1],[0],[0],[1.6988933000247926],['target'],4,001,2024-10-09_12h55.42.840,visualsearch,2024.1.5,None,2024-10-09 12h55.57.467999 +0530,
48,0,48,0,114.44651409995276,,114.42294889991172,5,114.44651409995276,114.44651409995276,0.017043299973011017,115.97025399992708,[-0.34814814814814815],[0.1361111111111111],[1],[0],[0],[1.5304992999881506],['target'],4,001,2024-10-09_12h55.42.840,visualsearch,2024.1.5,None,2024-10-09 12h55.57.467999 +0530,
49,0,49,0,116.02201499999501,,115.97496609995142,10,116.02201499999501,116.02201499999501,0.03570250002667308,118.21887589991093,[-0.44537037037037036],[0.4064814814814815],[1],[0],[0],[2.208520599990152],['target'],4,001,2024-10-09_12h55.42.840,visualsearch,2024.1.5,None,2024-10-09 12h55.57.467999 +0530,
50,0,50,0,118.27622459991835,,118.22532769991085,10,118.27622459991835,118.27622459991835,0.03808689990546554,120.4671349999262,[0.32407407407407407],[0.25833333333333336],[1],[0],[0],[2.204478400060907],['target'],4,001,2024-10-09_12h55.42.840,visualsearch,2024.1.5,None,2024-10-09 12h55.57.467999 +0530,
51,0,51,0,120.51573619991541,,120.47165889991447,5,120.51573619991541,120.51573619991541,0.03504039999097586,122.10154479998164,[-0.43333333333333335],[0.16111111111111112],[1],[0],[0],[1.5954033000161871],['target'],4,001,2024-10-09_12h55.42.840,visualsearch,2024.1.5,None,2024-10-09 12h55.57.467999 +0530,
52,0,52,0,122.1438305999618,,122.10517669992987,5,122.1438305999618,122.1438305999618,0.031197100062854588,124.06783119996544,[0.4101851851851852],[-0.31666666666666665],[1],[0],[0],[1.931611099978909],['target'],4,001,2024-10-09_12h55.42.840,visualsearch,2024.1.5,None,2024-10-09 12h55.57.467999 +0530,
53,0,53,0,124.11450989998411,,124.07205159997102,10,124.11450989998411,124.11450989998411,0.03079659992363304,126.91775599995162,[-0.17592592592592593],[0.475],[1],[0],[0],[2.815140499966219],['target'],4,001,2024-10-09_12h55.42.840,visualsearch,2024.1.5,None,2024-10-09 12h55.57.467999 +0530,
54,0,54,0,126.94629669992719,,126.92264989996329,5,126.94629669992719,126.94629669992719,0.016476500080898404,128.61974169989116,[0.13148148148148148],[-0.32407407407407407],[1],[0],[0],[1.6806338999886066],['target'],4,001,2024-10-09_12h55.42.840,visualsearch,2024.1.5,None,2024-10-09 12h55.57.467999 +0530,
55,0,55,0,128.6511222999543,,128.62543319992255,5,128.6511222999543,128.6511222999543,0.018548800027929246,130.23663979989942,[-0.016666666666666666],[-0.1574074074074074],[1],[0],[0],[1.593101799953729],['target'],4,001,2024-10-09_12h55.42.840,visualsearch,2024.1.5,None,2024-10-09 12h55.57.467999 +0530,
56,0,56,0,130.27217269991525,,130.2436942999484,5,130.27217269991525,130.27217269991525,0.020762000000104308,132.13664659997448,[0.3731481481481482],[0.14351851851851852],[1],[0],[0],[1.8728650999255478],['target'],4,001,2024-10-09_12h55.42.840,visualsearch,2024.1.5,None,2024-10-09 12h55.57.467999 +0530,
57,0,57,0,132.16912399989087,,132.14392799988855,5,132.16912399989087,132.16912399989087,0.017916499986313283,134.05372279998846,[0.4444444444444444],[0.4009259259259259],[1],[0],[0],[1.8922539999475703],['target'],4,001,2024-10-09_12h55.42.840,visualsearch,2024.1.5,None,2024-10-09 12h55.57.467999 +0530,
58,0,58,0,134.10353959992062,,134.06036449992098,10,134.10353959992062,134.10353959992062,0.03235640004277229,135.3178058998892,[0.3037037037037037],[0.3388888888888889],[1],[0],[0],[1.225904899998568],['target'],4,001,2024-10-09_12h55.42.840,visualsearch,2024.1.5,None,2024-10-09 12h55.57.467999 +0530,
59,0,59,0,135.36710279993713,,135.32149579992983,10,135.36710279993713,135.36710279993713,0.03540839999914169,138.73674219998065,[0.15925925925925927],[-0.2101851851851852],[1],[0],[0],[3.3802685999544337],['target'],4,001,2024-10-09_12h55.42.840,visualsearch,2024.1.5,None,2024-10-09 12h55.57.467999 +0530,
60,0,60,0,138.7695208999794,,138.74393459991552,5,138.7695208999794,138.7695208999794,0.018479099962860346,140.45296549994964,[0.3527777777777778],[0.29444444444444445],[1],[0],[0],[1.6914358999347314],['target'],4,001,2024-10-09_12h55.42.840,visualsearch,2024.1.5,None,2024-10-09 12h55.57.467999 +0530,
61,0,61,0,140.48599580000155,,140.45782149990555,5,140.48599580000155,140.48599580000155,0.02207720000296831,141.8012662999099,[0.17962962962962964],[0.47129629629629627],[1],[0],[0],[1.3216866999864578],['target'],4,001,2024-10-09_12h55.42.840,visualsearch,2024.1.5,None,2024-10-09 12h55.57.467999 +0530,
62,0,62,0,141.85241389996372,,141.8061355999671,10,141.85241389996372,141.85241389996372,0.03510640002787113,150.61905739991926,[-0.04537037037037037],[-0.24074074074074073],[1],[0],[0],[8.778217399958521],['target'],4,001,2024-10-09_12h55.42.840,visualsearch,2024.1.5,None,2024-10-09 12h55.57.467999 +0530,
63,0,63,0,150.66490089998115,,150.6226139999926,10,150.66490089998115,150.66490089998115,0.030887700035236776,153.25093069998547,[-0.002777777777777778],[-0.3888888888888889],[1],[0],[0],[2.597680800012313],['target'],4,001,2024-10-09_12h55.42.840,visualsearch,2024.1.5,None,2024-10-09 12h55.57.467999 +0530,
64,0,64,0,153.31010269990657,,153.25445169990417,10,153.31010269990657,153.31010269990657,0.04177489993162453,156.03521239990368,[-0.1527777777777778],[-0.1962962962962963],[1],[0],[0],[2.7393716000951827],['target'],4,001,2024-10-09_12h55.42.840,visualsearch,2024.1.5,None,2024-10-09 12h55.57.467999 +0530,
65,0,65,0,156.06570959999226,,156.04051709990017,5,156.06570959999226,156.06570959999226,0.018294300069101155,158.70193539990578,[-0.3814814814814815],[0.487962962962963],[1],[0],[0],[2.6436099999118596],['target'],4,001,2024-10-09_12h55.42.840,visualsearch,2024.1.5,None,2024-10-09 12h55.57.467999 +0530,
66,0,66,0,158.75296589999925,,158.7074389999034,10,158.75296589999925,158.75296589999925,0.03370479994919151,161.0861604999518,[0.18888888888888888],[0.4398148148148148],[1],[0],[0],[2.3452271000714973],['target'],4,001,2024-10-09_12h55.42.840,visualsearch,2024.1.5,None,2024-10-09 12h55.57.467999 +0530,
67,0,67,0,161.13794699998107,,161.09180869988631,10,161.13794699998107,161.13794699998107,0.03509600006509572,163.01930909999646,[0.33796296296296297],[0.2074074074074074],[1],[0],[0],[1.8929992999183014],['target'],4,001,2024-10-09_12h55.42.840,visualsearch,2024.1.5,None,2024-10-09 12h55.57.467999 +0530,
68,0,68,0,163.06750289991032,,163.02552689996082,10,163.06750289991032,163.06750289991032,0.03180440003052354,164.6532106999075,[-0.49074074074074076],[0.15462962962962962],[1],[0],[0],[1.5965564999496564],['target'],4,001,2024-10-09_12h55.42.840,visualsearch,2024.1.5,None,2024-10-09 12h55.57.467999 +0530,
69,0,69,0,164.68265189998783,,164.6589629999362,5,164.68265189998783,164.68265189998783,0.017415200010873377,166.951302499976,[0.3537037037037037],[0.44907407407407407],[1],[0],[0],[2.275744099984877],['target'],4,001,2024-10-09_12h55.42.840,visualsearch,2024.1.5,None,2024-10-09 12h55.57.467999 +0530,
70,0,70,0,167.02613249991555,,166.95558179996442,10,167.02613249991555,167.02613249991555,0.03991859999950975,170.18492519995198,[-0.027777777777777776],[-0.13518518518518519],[1],[0],[0],[3.1896574000129476],['target'],4,001,2024-10-09_12h55.42.840,visualsearch,2024.1.5,None,2024-10-09 12h55.57.467999 +0530,
71,0,71,0,170.23334379994776,,170.19013479992282,10,170.23334379994776,170.23334379994776,0.03266020002774894,173.5852567999391,[-0.29444444444444445],[-0.4305555555555556],[1],[0],[0],[3.3626960000256076],['target'],4,001,2024-10-09_12h55.42.840,visualsearch,2024.1.5,None,2024-10-09 12h55.57.467999 +0530,
72,0,72,0,173.63934859994333,,173.58967099990696,10,173.63934859994333,173.63934859994333,0.035541299963369966,175.93475419993047,[-0.04814814814814815],[-0.32592592592592595],[1],[0],[0],[2.3098529999842867],['target'],4,001,2024-10-09_12h55.42.840,visualsearch,2024.1.5,None,2024-10-09 12h55.57.467999 +0530,
73,0,73,0,175.9795918999007,,175.938145199907,10,175.9795918999007,175.9795918999007,0.03054920001886785,177.3177228999557,[0.1537037037037037],[-0.17962962962962964],[1],[0],[0],[1.349197500036098],['target'],4,001,2024-10-09_12h55.42.840,visualsearch,2024.1.5,None,2024-10-09 12h55.57.467999 +0530,
74,0,74,0,177.3693666999461,,177.32257099996787,10,177.3693666999461,177.3693666999461,0.035800699959509075,178.53417389991228,[-0.044444444444444446],[-0.06574074074074074],[1],[0],[0],[1.17650279996451],['target'],4,001,2024-10-09_12h55.42.840,visualsearch,2024.1.5,None,2024-10-09 12h55.57.467999 +0530,
75,0,75,0,178.57711139996536,,178.5373644999927,10,178.57711139996536,178.57711139996536,0.028981200070120394,180.9851529999869,[-0.46944444444444444],[-0.19722222222222222],[1],[0],[0],[2.4185864999890327],['target'],4,001,2024-10-09_12h55.42.840,visualsearch,2024.1.5,None,2024-10-09 12h55.57.467999 +0530,
76,0,76,0,181.02027719991747,,180.99208299990278,5,181.02027719991747,181.02027719991747,0.021694199997000396,182.952091599931,[0.04537037037037037],[0.09907407407407408],[1],[0],[0],[1.939615200040862],['target'],4,001,2024-10-09_12h55.42.840,visualsearch,2024.1.5,None,2024-10-09 12h55.57.467999 +0530,
77,0,77,0,183.01362739992328,,182.95672579994425,10,183.01362739992328,183.01362739992328,0.03304379992187023,184.66806789999828,[0.4222222222222222],[0.27314814814814814],[1],[0],[0],[1.6781913000158966],['target'],4,001,2024-10-09_12h55.42.840,visualsearch,2024.1.5,None,2024-10-09 12h55.57.467999 +0530,
78,0,78,0,184.72853719990235,,184.67428169993218,10,184.72853719990235,184.72853719990235,0.04125710006337613,186.38469049998093,[0.1259259259259259],[0.45555555555555555],[1],[0],[0],[1.6699424999533221],['target'],4,001,2024-10-09_12h55.42.840,visualsearch,2024.1.5,None,2024-10-09 12h55.57.467999 +0530,
79,0,79,0,186.4332767999731,,186.38984429999255,10,186.4332767999731,186.4332767999731,0.03284649993292987,190.65130949998274,[0.03333333333333333],[0.05462962962962963],[1],[0],[0],[4.229114000103436],['target'],4,001,2024-10-09_12h55.42.840,visualsearch,2024.1.5,None,2024-10-09 12h55.57.467999 +0530,
80,0,80,0,190.6965809999965,,190.65544229990337,10,190.6965809999965,190.6965809999965,0.030565100023522973,192.95130209997296,[0.09814814814814815],[0.4842592592592593],[1],[0],[0],[2.2654513999586925],['target'],4,001,2024-10-09_12h55.42.840,visualsearch,2024.1.5,None,2024-10-09 12h55.57.467999 +0530,
81,0,81,0,192.9795918999007,,192.9560700999573,5,192.9795918999007,192.9795918999007,0.01652419997844845,194.85372109990567,[-0.25092592592592594],[-0.17037037037037037],[1],[0],[0],[1.8812250000191852],['target'],4,001,2024-10-09_12h55.42.840,visualsearch,2024.1.5,None,2024-10-09 12h55.57.467999 +0530,
82,0,82,0,194.88883789989632,,194.85930619994178,5,194.88883789989632,194.88883789989632,0.02129229996353388,196.61781919992063,[0.07592592592592592],[-0.24537037037037038],[1],[0],[0],[1.7374875000678003],['target'],4,001,2024-10-09_12h55.42.840,visualsearch,2024.1.5,None,2024-10-09 12h55.57.467999 +0530,
83,0,83,0,196.6495960999746,,196.6226514999289,5,196.6495960999746,196.6495960999746,0.020076900022104383,199.45314819994383,[0.03425925925925926],[-0.13055555555555556],[1],[0],[0],[2.810616899980232],['target'],4,001,2024-10-09_12h55.42.840,visualsearch,2024.1.5,None,2024-10-09 12h55.57.467999 +0530,
84,0,84,0,199.5068631999893,,199.458587699919,10,199.5068631999893,199.5068631999893,0.03808800003025681,201.7181362999836,[0.275],[0.26481481481481484],[1],[0],[0],[2.2222956999903545],['target'],4,001,2024-10-09_12h55.42.840,visualsearch,2024.1.5,None,2024-10-09 12h55.57.467999 +0530,
85,0,85,0,201.7642322999891,,201.72327629989013,10,201.7642322999891,201.7642322999891,0.03047090000472963,204.96893360000104,[0.23333333333333334],[-0.35462962962962963],[1],[0],[0],[3.2153654999565333],['target'],4,001,2024-10-09_12h55.42.840,visualsearch,2024.1.5,None,2024-10-09 12h55.57.467999 +0530,
86,0,86,0,205.0184489999665,,204.97311629995238,10,205.0184489999665,205.0184489999665,0.03425230004359037,207.11953419994097,[0.3731481481481482],[-0.24259259259259258],[1],[0],[0],[2.1123939000535756],['target'],4,001,2024-10-09_12h55.42.840,visualsearch,2024.1.5,None,2024-10-09 12h55.57.467999 +0530,
87,0,87,0,207.18282019998878,,207.12500349991024,10,207.18282019998878,207.18282019998878,0.03412419999949634,209.25170719996095,[0.4111111111111111],[-0.44166666666666665],[1],[0],[0],[2.0928058000281453],['target'],4,001,2024-10-09_12h55.42.840,visualsearch,2024.1.5,None,2024-10-09 12h55.57.467999 +0530,
88,0,88,0,209.28233319998253,,209.25679919996765,5,209.28233319998253,209.28233319998253,0.019044300075620413,214.96869079989847,[-0.0712962962962963],[-0.05925925925925926],[1],[0],[0],[5.692960100015625],['target'],4,001,2024-10-09_12h55.42.840,visualsearch,2024.1.5,None,2024-10-09 12h55.57.467999 +0530,
89,0,89,0,214.99816779990215,,214.97323979996145,5,214.99816779990215,214.99816779990215,0.017205199925228953,216.93452699994668,[-0.2861111111111111],[0.1259259259259259],[1],[0],[0],[1.9443184999981895],['target'],4,001,2024-10-09_12h55.42.840,visualsearch,2024.1.5,None,2024-10-09 12h55.57.467999 +0530,
90,0,90,0,216.96511649992317,,216.93973529990762,5,216.96511649992317,216.96511649992317,0.01692269998602569,219.8180079999147,[-0.3685185185185185],[-0.049074074074074076],[1],[0],[0],[2.861384900053963],['target'],4,001,2024-10-09_12h55.42.840,visualsearch,2024.1.5,None,2024-10-09 12h55.57.467999 +0530,
91,0,91,0,219.86742119991686,,219.82225539989304,10,219.86742119991686,219.86742119991686,0.0338002999778837,224.43477569997776,[-0.4324074074074074],[-0.4388888888888889],[1],[0],[0],[4.578976399963722],['target'],4,001,2024-10-09_12h55.42.840,visualsearch,2024.1.5,None,2024-10-09 12h55.57.467999 +0530,
92,0,92,0,224.47932709997986,,224.43958719994407,5,224.47932709997986,224.47932709997986,0.018072900013066828,226.30176719999872,[-0.08796296296296297],[0.028703703703703703],[1],[0],[0],[1.844298499985598],['target'],4,001,2024-10-09_12h55.42.840,visualsearch,2024.1.5,None,2024-10-09 12h55.57.467999 +0530,
93,0,93,0,226.33864159998484,,226.30783159995917,5,226.33864159998484,226.33864159998484,0.02178700000513345,228.7705756999785,[0.25925925925925924],[0.4601851851851852],[1],[0],[0],[2.441575999953784],['target'],4,001,2024-10-09_12h55.42.840,visualsearch,2024.1.5,None,2024-10-09 12h55.57.467999 +0530,
94,0,94,0,228.80217999999877,,228.77613319992088,5,228.80217999999877,228.80217999999877,0.019076299970038235,231.069710199954,[-0.075],[0.16018518518518518],[1],[0],[0],[2.2749578000511974],['target'],4,001,2024-10-09_12h55.42.840,visualsearch,2024.1.5,None,2024-10-09 12h55.57.467999 +0530,
95,0,95,0,231.11888889991678,,231.07561289996374,10,231.11888889991678,231.11888889991678,0.03288330009672791,233.38474499993026,[-0.36944444444444446],[-0.35833333333333334],[1],[0],[0],[2.276763099944219],['target'],4,001,2024-10-09_12h55.42.840,visualsearch,2024.1.5,None,2024-10-09 12h55.57.467999 +0530,
96,0,96,0,233.4136078999145,,233.38837569998577,5,233.4136078999145,233.4136078999145,0.016677999985404313,234.97002669994254,[0.06481481481481481],[-0.40370370370370373],[1],[0],[0],[1.5649296999908984],['target'],4,001,2024-10-09_12h55.42.840,visualsearch,2024.1.5,None,2024-10-09 12h55.57.467999 +0530,
97,0,97,0,235.02637009997852,,234.97621349990368,10,235.02637009997852,235.02637009997852,0.03767130000051111,236.48342789988965,[-0.03518518518518519],[-0.35],[1],[0],[0],[1.4704863999504596],['target'],4,001,2024-10-09_12h55.42.840,visualsearch,2024.1.5,None,2024-10-09 12h55.57.467999 +0530,
98,0,98,0,236.51218689989764,,236.4876946998993,5,236.51218689989764,236.51218689989764,0.017113700043410063,238.45146979996935,[-0.07222222222222222],[-0.20833333333333334],[1],[0],[0],[1.9470724000129849],['target'],4,001,2024-10-09_12h55.42.840,visualsearch,2024.1.5,None,2024-10-09 12h55.57.467999 +0530,
99,0,99,0,238.479575599893,,238.45596249995288,5,238.479575599893,238.479575599893,0.016692199977114797,250.4844427999342,[-0.08611111111111111],[-0.22592592592592592],[1],[0],[0],[12.012010500067845],['target'],4,001,2024-10-09_12h55.42.840,visualsearch,2024.1.5,None,2024-10-09 12h55.57.467999 +0530,
100,0,100,0,250.51912249997258,,250.4889471998904,5,250.51912249997258,250.51912249997258,0.021588200004771352,253.01947239995934,[-0.4564814814814815],[-0.26481481481481484],[1],[0],[0],[2.509288299945183],['target'],4,001,2024-10-09_12h55.42.840,visualsearch,2024.1.5,None,2024-10-09 12h55.57.467999 +0530,
101,0,101,0,253.05116529995576,,253.0249354999978,5,253.05116529995576,253.05116529995576,0.018509600078687072,256.0680522999028,[0.26851851851851855],[0.001851851851851852],[1],[0],[0],[3.024963599978946],['target'],4,001,2024-10-09_12h55.42.840,visualsearch,2024.1.5,None,2024-10-09 12h55.57.467999 +0530,
102,0,102,0,256.1010625999188,,256.0731315999292,5,256.1010625999188,256.1010625999188,0.020127099938690662,258.08488979993854,[-0.41388888888888886],[0.3574074074074074],[1],[0],[0],[1.9919189000502229],['target'],4,001,2024-10-09_12h55.42.840,visualsearch,2024.1.5,None,2024-10-09 12h55.57.467999 +0530,
103,0,103,0,258.11808309995104,,258.09104249998927,5,258.11808309995104,258.11808309995104,0.019933999981731176,260.1351661999943,[0.38981481481481484],[-0.024074074074074074],[1],[0],[0],[2.024135500076227],['target'],4,001,2024-10-09_12h55.42.840,visualsearch,2024.1.5,None,2024-10-09 12h55.57.467999 +0530,
104,0,104,0,260.1679226999404,,260.14034779998474,5,260.1679226999404,260.1679226999404,0.018831800087355077,266.9516682999674,[-0.20185185185185187],[-0.225],[1],[0],[0],[6.792580500012264],['target'],4,001,2024-10-09_12h55.42.840,visualsearch,2024.1.5,None,2024-10-09 12h55.57.467999 +0530,
105,0,105,0,266.9829734999221,,266.95585289993323,5,266.9829734999221,266.9829734999221,0.01946830004453659,268.5536766999867,[0.18888888888888888],[0.17592592592592593],[1],[0],[0],[1.5785300999414176],['target'],4,001,2024-10-09_12h55.42.840,visualsearch,2024.1.5,None,2024-10-09 12h55.57.467999 +0530,
106,0,106,0,268.5872569999192,,268.55836539994925,5,268.5872569999192,268.5872569999192,0.021775600034743547,271.1880051998887,[0.1398148148148148],[-0.36574074074074076],[1],[0],[0],[2.608115900075063],['target'],4,001,2024-10-09_12h55.42.840,visualsearch,2024.1.5,None,2024-10-09 12h55.57.467999 +0530,
107,0,107,0,271.2389013998909,,271.19303809991106,10,271.2389013998909,271.2389013998909,0.033273300039581954,273.40133039990906,[-0.35462962962962963],[0.2601851851851852],[1],[0],[0],[2.1753869999665767],['target'],4,001,2024-10-09_12h55.42.840,visualsearch,2024.1.5,None,2024-10-09 12h55.57.467999 +0530,
108,0,108,0,273.4329021999147,,273.4069656999782,5,273.4329021999147,273.4329021999147,0.018159800092689693,274.93710759992246,[-0.28425925925925927],[-0.023148148148148147],[1],[0],[0],[1.512382599990815],['target'],4,001,2024-10-09_12h55.42.840,visualsearch,2024.1.5,None,2024-10-09 12h55.57.467999 +0530,
109,0,109,0,274.97146179992706,,274.944235599949,5,274.97146179992706,274.97146179992706,0.020221599959768355,276.9197732999455,[0.025],[0.03981481481481482],[1],[0],[0],[1.9561902000568807],['target'],4,001,2024-10-09_12h55.42.840,visualsearch,2024.1.5,None,2024-10-09 12h55.57.467999 +0530,
110,0,110,0,276.95281099993736,,276.92710089997854,5,276.95281099993736,276.95281099993736,0.019208300043828785,282.16818149993196,[-0.028703703703703703],[0.01574074074074074],[1],[0],[0],[5.222665900015272],['target'],4,001,2024-10-09_12h55.42.840,visualsearch,2024.1.5,None,2024-10-09 12h55.57.467999 +0530,
111,0,111,0,282.2173277999973,,282.17310299992096,10,282.2173277999973,282.2173277999973,0.032846399932168424,284.30120439990424,[0.14537037037037037],[-0.37037037037037035],[1],[0],[0],[2.095901499968022],['target'],4,001,2024-10-09_12h55.42.840,visualsearch,2024.1.5,None,2024-10-09 12h55.57.467999 +0530,
112,0,112,0,284.3502830999205,,284.306059799972,10,284.3502830999205,284.3502830999205,0.03234310005791485,286.43512919999193,[-0.4935185185185185],[-0.2222222222222222],[1],[0],[0],[2.0971093999687582],['target'],4,001,2024-10-09_12h55.42.840,visualsearch,2024.1.5,None,2024-10-09 12h55.57.467999 +0530,
113,0,113,0,286.48593909991905,,286.4393317999784,10,286.48593909991905,286.48593909991905,0.03373929997906089,288.67584709997755,[-0.03425925925925926],[-0.3787037037037037],[1],[0],[0],[2.202679199981503],['target'],4,001,2024-10-09_12h55.42.840,visualsearch,2024.1.5,None,2024-10-09 12h55.57.467999 +0530,
114,0,114,0,288.73288169992156,,288.6805414999835,10,288.73288169992156,288.73288169992156,0.04092629998922348,290.3364434998948,[0.3194444444444444],[0.24537037037037038],[1],[0],[0],[1.6151109000202268],['target'],4,001,2024-10-09_12h55.42.840,visualsearch,2024.1.5,None,2024-10-09 12h55.57.467999 +0530,
115,0,115,0,290.36602259997744,,290.34169219993055,5,290.36602259997744,290.36602259997744,0.017089399974793196,292.85224309994373,[-0.35648148148148145],[-0.30092592592592593],[1],[0],[0],[2.493358900072053],['target'],4,001,2024-10-09_12h55.42.840,visualsearch,2024.1.5,None,2024-10-09 12h55.57.467999 +0530,
116,0,116,0,292.8835342999082,,292.85732809989713,5,292.8835342999082,292.8835342999082,0.019398500095121562,294.353118399973,[0.4324074074074074],[0.26481481481481484],[1],[0],[0],[1.4766105000162497],['target'],4,001,2024-10-09_12h55.42.840,visualsearch,2024.1.5,None,2024-10-09 12h55.57.467999 +0530,
117,0,117,0,294.3888958999887,,294.3599107998889,5,294.3888958999887,294.3888958999887,0.021594900055788457,296.3015301999403,[-0.2898148148148148],[0.462037037037037],[1],[0],[0],[1.9210171999875456],['target'],4,001,2024-10-09_12h55.42.840,visualsearch,2024.1.5,None,2024-10-09 12h55.57.467999 +0530,
118,0,118,0,296.333081599907,,296.3062278999714,5,296.333081599907,296.333081599907,0.018080800073221326,298.48449849989265,[-0.17222222222222222],[-0.33425925925925926],[1],[0],[0],[2.1605810000328347],['target'],4,001,2024-10-09_12h55.42.840,visualsearch,2024.1.5,None,2024-10-09 12h55.57.467999 +0530,
119,0,119,0,298.51692989992443,,298.48934889992233,5,298.51692989992443,298.51692989992443,0.01994509994983673,300.31852919992525,[0.27870370370370373],[-0.07685185185185185],[1],[0],[0],[1.8093958999961615],['target'],4,001,2024-10-09_12h55.42.840,visualsearch,2024.1.5,None,2024-10-09 12h55.57.467999 +0530,
120,0,120,0,300.3713803999126,,300.3237320999615,10,300.3713803999126,300.3713803999126,0.034466000040993094,302.0527529999381,[0.2962962962962963],[0.16574074074074074],[1],[0],[0],[1.6947296999860555],['target'],4,001,2024-10-09_12h55.42.840,visualsearch,2024.1.5,None,2024-10-09 12h55.57.467999 +0530,
121,0,121,0,302.0881104998989,,302.0598427999066,5,302.0881104998989,302.0881104998989,0.020722599932923913,304.33497899991926,[0.24259259259259258],[0.024074074074074074],[1],[0],[0],[2.2551815999904647],['target'],4,001,2024-10-09_12h55.42.840,visualsearch,2024.1.5,None,2024-10-09 12h55.57.467999 +0530,
122,0,122,0,304.3703808999853,,304.3401644999394,5,304.3703808999853,304.3703808999853,0.022183099994435906,306.26816789992154,[0.009259259259259259],[0.2222222222222222],[1],[0],[0],[1.9060824000043795],['target'],4,001,2024-10-09_12h55.42.840,visualsearch,2024.1.5,None,2024-10-09 12h55.57.467999 +0530,
123,0,123,0,306.3068884999957,,306.2755145999836,5,306.3068884999957,306.3068884999957,0.02399640006478876,307.9680576999672,[-0.30833333333333335],[-0.36018518518518516],[1],[0],[0],[1.6689177999505773],['target'],4,001,2024-10-09_12h55.42.840,visualsearch,2024.1.5,None,2024-10-09 12h55.57.467999 +0530,
124,0,124,0,308.0314320999896,,307.9728201999096,10,308.0314320999896,308.0314320999896,0.03949969995301217,310.6180067999521,[0.10277777777777777],[0.002777777777777778],[1],[0],[0],[2.6060285000130534],['target'],4,001,2024-10-09_12h55.42.840,visualsearch,2024.1.5,None,2024-10-09 12h55.57.467999 +0530,
125,0,125,0,310.669862599927,,310.6219187999377,10,310.669862599927,310.669862599927,0.035529399989172816,312.86797589994967,[-0.2564814814814815],[0.34629629629629627],[1],[0],[0],[2.210754800005816],['target'],4,001,2024-10-09_12h55.42.840,visualsearch,2024.1.5,None,2024-10-09 12h55.57.467999 +0530,
126,0,126,0,312.9298859999981,,312.87301899993327,10,312.9298859999981,312.9298859999981,0.04415090009570122,314.6016167999478,[0.48518518518518516],[0.33796296296296297],[1],[0],[0],[1.6846621999284253],['target'],4,001,2024-10-09_12h55.42.840,visualsearch,2024.1.5,None,2024-10-09 12h55.57.467999 +0530,
127,0,127,0,314.63142469991,,314.6060720999958,5,314.63142469991,314.63142469991,0.018159599974751472,316.6050842999248,[-0.39166666666666666],[0.1287037037037037],[1],[0],[0],[1.9808621000265703],['target'],4,001,2024-10-09_12h55.42.840,visualsearch,2024.1.5,None,2024-10-09 12h55.57.467999 +0530,
128,0,128,0,316.6618449999951,,316.60955469997134,10,316.6618449999951,316.6618449999951,0.04121169995050877,318.60125269996934,[0.35462962962962963],[-0.03888888888888889],[1],[0],[0],[1.9508760999888182],[],4,001,2024-10-09_12h55.42.840,visualsearch,2024.1.5,None,2024-10-09 12h55.57.467999 +0530,
129,0,129,0,318.6471502999775,,318.60544590000063,10,318.6471502999775,318.6471502999775,0.03132429998368025,320.5022099999478,[-0.30092592592592593],[-0.2537037037037037],[1],[0],[0],[1.8655814999947324],['target'],4,001,2024-10-09_12h55.42.840,visualsearch,2024.1.5,None,2024-10-09 12h55.57.467999 +0530,
130,0,130,0,320.5564175999025,,320.50871889991686,10,320.5564175999025,320.5564175999025,0.03607969998847693,323.1369667999679,[-0.41944444444444445],[0.2814814814814815],[1],[0],[0],[2.593487299978733],['target'],4,001,2024-10-09_12h55.42.840,visualsearch,2024.1.5,None,2024-10-09 12h55.57.467999 +0530,
131,0,131,0,323.1657144998899,,323.1410398998996,5,323.1657144998899,323.1657144998899,0.01770969992503524,325.48467859998345,[0.20555555555555555],[0.2490740740740741],[1],[0],[0],[2.3260660000378266],['target'],4,001,2024-10-09_12h55.42.840,visualsearch,2024.1.5,None,2024-10-09 12h55.57.467999 +0530,
132,0,132,0,325.5129608999705,,325.4893994999584,5,325.5129608999705,325.5129608999705,0.016800999990664423,327.85139549989253,[0.032407407407407406],[0.3490740740740741],[1],[0],[0],[2.345521099981852],['target'],4,001,2024-10-09_12h55.42.840,visualsearch,2024.1.5,None,2024-10-09 12h55.57.467999 +0530,
133,0,133,0,327.9023155999603,,327.85689309996087,10,327.9023155999603,327.9023155999603,0.03321999998297542,330.4361525999848,[-0.025],[-0.09722222222222222],[1],[0],[0],[2.546298500034027],['target'],4,001,2024-10-09_12h55.42.840,visualsearch,2024.1.5,None,2024-10-09 12h55.57.467999 +0530,
134,0,134,0,330.46811879996676,,330.4413598999381,5,330.46811879996676,330.46811879996676,0.018411100027151406,332.36763799993787,[-0.26851851851851855],[0.30092592592592593],[1],[0],[0],[1.9085348999360576],['target'],4,001,2024-10-09_12h55.42.840,visualsearch,2024.1.5,None,2024-10-09 12h55.57.467999 +0530,
135,0,135,0,332.3936874999199,,332.3705876999302,5,332.3936874999199,332.3936874999199,0.015726400073617697,334.45286739990115,[-0.17037037037037037],[0.25092592592592594],[1],[0],[0],[2.0664881999837235],['target'],4,001,2024-10-09_12h55.42.840,visualsearch,2024.1.5,None,2024-10-09 12h55.57.467999 +0530,
136,0,136,0,334.4838344999589,,334.4587467999663,5,334.4838344999589,334.4838344999589,0.018023299984633923,338.73467129992787,[0.26944444444444443],[-0.44907407407407407],[1],[0],[0],[4.258245600038208],['target'],4,001,2024-10-09_12h55.42.840,visualsearch,2024.1.5,None,2024-10-09 12h55.57.467999 +0530,
137,0,137,0,338.7826297999127,,338.7401561998995,10,338.7826297999127,338.7826297999127,0.031127299997024238,344.9854664999293,[0.022222222222222223],[0.017592592592592594],[1],[0],[0],[6.2149326000362635],['target'],4,001,2024-10-09_12h55.42.840,visualsearch,2024.1.5,None,2024-10-09 12h55.57.467999 +0530,
138,0,138,0,345.0159687999403,,344.9907696999144,5,345.0159687999403,345.0159687999403,0.01779730000998825,347.2348483999958,[-0.44722222222222224],[-0.2972222222222222],[1],[0],[0],[2.22667410003487],['target'],4,001,2024-10-09_12h55.42.840,visualsearch,2024.1.5,None,2024-10-09 12h55.57.467999 +0530,
139,0,139,0,347.31142609997187,,347.2392302999506,10,347.31142609997187,347.31142609997187,0.058299200027249753,351.751380499918,[-0.3851851851851852],[-0.1398148148148148],[1],[0],[0],[4.454085700097494],['target'],4,001,2024-10-09_12h55.42.840,visualsearch,2024.1.5,None,2024-10-09 12h55.57.467999 +0530,
140,0,140,0,351.7782326999586,,351.7552518999437,5,351.7782326999586,351.7782326999586,0.01586510008201003,354.3181756999111,[0.12777777777777777],[-0.4027777777777778],[1],[0],[0],[2.546959599945694],['target'],4,001,2024-10-09_12h55.42.840,visualsearch,2024.1.5,None,2024-10-09 12h55.57.467999 +0530,
141,0,141,0,354.3448779999744,,354.3211194999749,5,354.3448779999744,354.3448779999744,0.01643860002513975,355.8525957999518,[-0.08888888888888889],[-0.09722222222222222],[1],[0],[0],[1.514967399998568],['target'],4,001,2024-10-09_12h55.42.840,visualsearch,2024.1.5,None,2024-10-09 12h55.57.467999 +0530,
142,0,142,0,355.9245517998934,,355.85868229996413,10,355.9245517998934,355.9245517998934,0.033424200024455786,357.701304599992,[-0.20925925925925926],[-0.2657407407407407],[1],[0],[0],[1.8097297999775037],['target'],4,001,2024-10-09_12h55.42.840,visualsearch,2024.1.5,None,2024-10-09 12h55.57.467999 +0530,
143,0,143,0,357.7343547999626,,357.70668179995846,5,357.7343547999626,357.7343547999626,0.019164699944667518,360.28730949992314,[-0.3388888888888889],[-0.4388888888888889],[1],[0],[0],[2.562102900003083],['target'],4,001,2024-10-09_12h55.42.840,visualsearch,2024.1.5,None,2024-10-09 12h55.57.467999 +0530,
144,0,144,0,360.35448649991304,,360.29300539998803,10,360.35448649991304,360.35448649991304,0.03489869995974004,365.18522329989355,[0.37962962962962965],[0.4722222222222222],[1],[0],[0],[4.8578548999503255],['target'],4,001,2024-10-09_12h55.42.840,visualsearch,2024.1.5,None,2024-10-09 12h55.57.467999 +0530,
145,0,145,0,365.231354599935,,365.1890215999447,10,365.231354599935,365.231354599935,0.03119990008417517,367.4851963999681,[0.1287037037037037],[-0.11296296296296296],[1],[0],[0],[2.2651063000084832],['target'],4,001,2024-10-09_12h55.42.840,visualsearch,2024.1.5,None,2024-10-09 12h55.57.467999 +0530,
146,0,146,0,367.51402459992096,,367.489262899966,5,367.51402459992096,367.51402459992096,0.01706950005609542,369.15151409991086,[0.2175925925925926],[0.41759259259259257],[1],[0],[0],[1.6451076000230387],['target'],4,001,2024-10-09_12h55.42.840,visualsearch,2024.1.5,None,2024-10-09 12h55.57.467999 +0530,
147,0,147,0,369.1962228999473,,369.1553143999772,10,369.1962228999473,369.1962228999473,0.028449299978092313,372.21769249998033,[0.44814814814814813],[0.4722222222222222],[1],[0],[0],[3.034174900036305],['target'],4,001,2024-10-09_12h55.42.840,visualsearch,2024.1.5,None,2024-10-09 12h55.57.467999 +0530,
148,0,148,0,372.24562009994406,,372.22194979991764,5,372.24562009994406,372.24562009994406,0.016348700039088726,373.8850902999984,[0.23333333333333334],[0.3972222222222222],[1],[0],[0],[1.6470560999587178],['target'],4,001,2024-10-09_12h55.42.840,visualsearch,2024.1.5,None,2024-10-09 12h55.57.467999 +0530,
149,0,149,0,373.92226729996037,,373.8904305999167,5,373.92226729996037,373.92226729996037,0.020634100073948503,375.53507539990824,[-0.2851851851851852],[0.4462962962962963],[1],[0],[0],[1.6248831000411883],['target'],4,001,2024-10-09_12h55.42.840,visualsearch,2024.1.5,None,2024-10-09 12h55.57.467999 +0530,
150,0,150,0,375.5660929000005,,375.5405273999786,5,375.5660929000005,375.5660929000005,0.017781100003048778,383.68480029993225,[-0.11388888888888889],[0.026851851851851852],[1],[0],[0],[8.126833699992858],['target'],4,001,2024-10-09_12h55.42.840,visualsearch,2024.1.5,None,2024-10-09 12h55.57.467999 +0530,
151,0,151,0,383.7181018999545,,383.6906988999108,5,383.7181018999545,383.7181018999545,0.019459599978290498,386.4512558999704,[-0.3453703703703704],[0.4537037037037037],[1],[0],[0],[2.7414582000346854],['target'],4,001,2024-10-09_12h55.42.840,visualsearch,2024.1.5,None,2024-10-09 12h55.57.467999 +0530,
152,0,152,0,386.5009737999644,,386.45585339993704,10,386.5009737999644,386.5009737999644,0.0319385000038892,389.4509854998905,[-0.12037037037037036],[0.10462962962962963],[1],[0],[0],[2.9635892000515014],['target'],4,001,2024-10-09_12h55.42.840,visualsearch,2024.1.5,None,2024-10-09 12h55.57.467999 +0530,
153,0,153,0,389.4976341999136,,389.45500449999236,10,389.4976341999136,389.4976341999136,0.03181249997578561,391.9017930999398,[-0.3277777777777778],[-0.10925925925925926],[1],[0],[0],[2.4149601999670267],['target'],4,001,2024-10-09_12h55.42.840,visualsearch,2024.1.5,None,2024-10-09 12h55.57.467999 +0530,
154,0,154,0,391.93431859998964,,391.9081570999697,5,391.93431859998964,391.93431859998964,0.01925319992005825,393.66832249995787,[0.40185185185185185],[-0.09537037037037037],[1],[0],[0],[1.7413479998940602],['target'],4,001,2024-10-09_12h55.42.840,visualsearch,2024.1.5,None,2024-10-09 12h55.57.467999 +0530,
155,0,155,0,393.7021515999222,,393.6726009999402,5,393.7021515999222,393.7021515999222,0.019465900026261806,395.55338049994316,[0.375],[0.42685185185185187],[1],[0],[0],[1.8613991000456735],['target'],4,001,2024-10-09_12h55.42.840,visualsearch,2024.1.5,None,2024-10-09 12h55.57.467999 +0530,
156,0,156,0,395.58898249990307,,395.5586668999167,5,395.58898249990307,395.58898249990307,0.02137640002183616,398.05190349998884,[0.04722222222222222],[-0.39351851851851855],[1],[0],[0],[2.471941599971615],['target'],4,001,2024-10-09_12h55.42.840,visualsearch,2024.1.5,None,2024-10-09 12h55.57.467999 +0530,
157,0,157,0,398.0835149999475,,398.0570648999419,5,398.0835149999475,398.0835149999475,0.01960630004759878,399.2872790999245,[0.262037037037037],[-0.2953703703703704],[1],[0],[0],[1.2108027000213042],['target'],4,001,2024-10-09_12h55.42.840,visualsearch,2024.1.5,None,2024-10-09 12h55.57.467999 +0530,
158,0,158,0,399.3224487999687,,399.2930775999557,5,399.3224487999687,399.3224487999687,0.021629299968481064,400.97034699993674,[0.4861111111111111],[-0.3111111111111111],[1],[0],[0],[1.6564354000147432],['target'],4,001,2024-10-09_12h55.42.840,visualsearch,2024.1.5,None,2024-10-09 12h55.57.467999 +0530,
159,0,159,0,401.0310305999592,,400.9755324999569,10,401.0310305999592,401.0310305999592,0.03754569997545332,404.46969269996043,[0.4203703703703704],[-0.43796296296296294],[1],[0],[0],[3.456922100041993],['target'],4,001,2024-10-09_12h55.42.840,visualsearch,2024.1.5,None,2024-10-09 12h55.57.467999 +0530,
160,0,160,0,404.54104989999905,,404.475549899973,10,404.54104989999905,404.54104989999905,0.05039129999931902,407.2365355999209,[0.49074074074074076],[0.35185185185185186],[1],[0],[0],[2.7111527000088245],['target'],4,001,2024-10-09_12h55.42.840,visualsearch,2024.1.5,None,2024-10-09 12h55.57.467999 +0530,
161,0,161,0,407.2899720999412,,407.2415330999065,10,407.2899720999412,407.2899720999412,0.033618299989029765,408.8381806999678,[0.3314814814814815],[-0.041666666666666664],[1],[0],[0],[1.5634513000259176],['target'],4,001,2024-10-09_12h55.42.840,visualsearch,2024.1.5,None,2024-10-09 12h55.57.467999 +0530,
162,0,162,0,408.89008069992997,,408.84526649990585,10,408.89008069992997,408.89008069992997,0.03290659992489964,410.50127219990827,[0.1814814814814815],[0.337037037037037],[1],[0],[0],[1.6239742999896407],['target'],4,001,2024-10-09_12h55.42.840,visualsearch,2024.1.5,None,2024-10-09 12h55.57.467999 +0530,
163,0,163,0,410.5767288999632,,410.5055596999591,10,410.5767288999632,410.5767288999632,0.049357299925759435,412.3183729999,[-0.3148148148148148],[0.17222222222222222],[1],[0],[0],[1.763418099959381],['target'],4,001,2024-10-09_12h55.42.840,visualsearch,2024.1.5,None,2024-10-09 12h55.57.467999 +0530,
164,0,164,0,412.394161199918,,412.3228311999701,10,412.394161199918,412.394161199918,0.05119639995973557,414.3180377999088,[-0.0824074074074074],[0.4638888888888889],[1],[0],[0],[1.9444302000338212],[],4,001,2024-10-09_12h55.42.840,visualsearch,2024.1.5,None,2024-10-09 12h55.57.467999 +0530,
165,0,165,0,414.3525569998892,,414.3224600999383,5,414.3525569998892,414.3525569998892,0.02112940000370145,419.1855859999778,[-0.4925925925925926],[0.011111111111111112],[1],[0],[0],[4.84208650002256],['target'],4,001,2024-10-09_12h55.42.840,visualsearch,2024.1.5,None,2024-10-09 12h55.57.467999 +0530,
166,0,166,0,419.2356085999636,,419.18974039994646,10,419.2356085999636,419.2356085999636,0.031168799963779747,421.4015222999733,[-0.22777777777777777],[-0.35462962962962963],[1],[0],[0],[2.1808738000690937],['target'],4,001,2024-10-09_12h55.42.840,visualsearch,2024.1.5,None,2024-10-09 12h55.57.467999 +0530,
167,0,167,0,421.45387899992056,,421.4075950999977,10,421.45387899992056,421.45387899992056,0.030224999994970858,423.16790489992127,[0.028703703703703703],[-0.17777777777777778],[1],[0],[0],[1.7301958999596536],['target'],4,001,2024-10-09_12h55.42.840,visualsearch,2024.1.5,None,2024-10-09 12h55.57.467999 +0530,
168,0,168,0,423.2005252999952,,423.1726456999313,5,423.2005252999952,423.2005252999952,0.016634400002658367,425.4538211999461,[-0.462037037037037],[-0.4444444444444444],[1],[0],[0],[2.2644579000771046],['target'],4,001,2024-10-09_12h55.42.840,visualsearch,2024.1.5,None,2024-10-09 12h55.57.467999 +0530,
169,0,169,0,425.4896832999075,,425.4615650998894,5,425.4896832999075,425.4896832999075,0.020760100102052093,428.23452409997117,[-0.05],[0.15462962962962962],[1],[0],[0],[2.7532434999011457],['target'],4,001,2024-10-09_12h55.42.840,visualsearch,2024.1.5,None,2024-10-09 12h55.57.467999 +0530,
170,0,170,0,428.2642754999688,,428.2380030999193,5,428.2642754999688,428.2642754999688,0.015658099902793765,430.25371899991296,[0.15648148148148147],[0.18888888888888888],[1],[0],[0],[2.000059600104578],['target'],4,001,2024-10-09_12h55.42.840,visualsearch,2024.1.5,None,2024-10-09 12h55.57.467999 +0530,
171,0,171,0,430.3078122999286,,430.2600186999189,10,430.3078122999286,430.3078122999286,0.03677100001368672,433.1027122999076,[0.4305555555555556],[0.46944444444444444],[1],[0],[0],[2.8064131999854],['target'],4,001,2024-10-09_12h55.42.840,visualsearch,2024.1.5,None,2024-10-09 12h55.57.467999 +0530,
172,0,172,0,433.1510632999707,,433.10778619989287,10,433.1510632999707,433.1510632999707,0.03168080002069473,435.63661459996365,[-0.17685185185185184],[0.32037037037037036],[1],[0],[0],[2.4974919999949634],['target'],4,001,2024-10-09_12h55.42.840,visualsearch,2024.1.5,None,2024-10-09 12h55.57.467999 +0530,
173,0,173,0,435.7127464999212,,435.64039709989447,10,435.7127464999212,435.7127464999212,0.052724999957717955,437.6853219999466,[0.43425925925925923],[0.2722222222222222],[1],[0],[0],[1.9922314999857917],['target'],4,001,2024-10-09_12h55.42.840,visualsearch,2024.1.5,None,2024-10-09 12h55.57.467999 +0530,
174,0,174,0,437.72031049989164,,437.6892931999173,5,437.72031049989164,437.72031049989164,0.01909169997088611,439.8850333999144,[-0.4601851851851852],[-0.29907407407407405],[1],[0],[0],[2.1767468999605626],['target'],4,001,2024-10-09_12h55.42.840,visualsearch,2024.1.5,None,2024-10-09 12h55.57.467999 +0530,
175,0,175,0,439.93521739996504,,439.88929319998715,10,439.93521739996504,439.93521739996504,0.031060800072737038,441.536348399939,[-0.07777777777777778],[0.34629629629629627],[1],[0],[0],[1.6163143999874592],['target'],4,001,2024-10-09_12h55.42.840,visualsearch,2024.1.5,None,2024-10-09 12h55.57.467999 +0530,
176,0,176,0,441.5700570999179,,441.54254069994204,5,441.5700570999179,441.5700570999179,0.01893349993042648,443.91856079990976,[-0.3527777777777778],[-0.462037037037037],[1],[0],[0],[2.357562999939546],['target'],4,001,2024-10-09_12h55.42.840,visualsearch,2024.1.5,None,2024-10-09 12h55.57.467999 +0530,
177,0,177,0,443.9519554999424,,443.92306619999,5,443.9519554999424,443.9519554999424,0.02055399992968887,445.41794529999606,[0.32592592592592595],[0.11851851851851852],[1],[0],[0],[1.4747686999617144],['target'],4,001,2024-10-09_12h55.42.840,visualsearch,2024.1.5,None,2024-10-09 12h55.57.467999 +0530,
178,0,178,0,445.4728624999989,,445.4227638999,10,445.4728624999989,445.4728624999989,0.03606870002113283,449.1514032999985,[-0.39444444444444443],[0.4027777777777778],[1],[0],[0],[3.6929541999707],['target'],4,001,2024-10-09_12h55.42.840,visualsearch,2024.1.5,None,2024-10-09 12h55.57.467999 +0530,
179,0,179,0,449.2036097999662,,449.1579839999322,10,449.2036097999662,449.2036097999662,0.032759000081568956,453.2346478999825,[0.2777777777777778],[-0.4546296296296296],[1],[0],[0],[4.044652399956249],['target'],4,001,2024-10-09_12h55.42.840,visualsearch,2024.1.5,None,2024-10-09 12h55.57.467999 +0530,
180,0,180,0,453.2686704999069,,453.2396431999514,5,453.2686704999069,453.2686704999069,0.018750399933196604,455.23781199997757,[0.39351851851851855],[0.3768518518518518],[1],[0],[0],[1.9796962999971583],['target'],4,001,2024-10-09_12h55.42.840,visualsearch,2024.1.5,None,2024-10-09 12h55.57.467999 +0530,
181,0,181,0,455.2707572999643,,455.24214439990465,5,455.2707572999643,455.2707572999643,0.02158699999563396,457.2365516999271,[-0.2064814814814815],[0.026851851851851852],[1],[0],[0],[1.9729525999864563],['target'],4,001,2024-10-09_12h55.42.840,visualsearch,2024.1.5,None,2024-10-09 12h55.57.467999 +0530,
182,0,182,0,457.29124089994,,457.2432474999223,10,457.29124089994,457.29124089994,0.03226080001331866,459.76812619995326,[-0.33425925925925926],[-0.3712962962962963],[1],[0],[0],[2.4934749000240117],['target'],4,001,2024-10-09_12h55.42.840,visualsearch,2024.1.5,None,2024-10-09 12h55.57.467999 +0530,
183,0,183,0,459.796002099989,,459.7715992999729,5,459.796002099989,459.796002099989,0.01640429999679327,461.9848631999921,[-0.2712962962962963],[-0.20555555555555555],[1],[0],[0],[2.1967861999291927],['target'],4,001,2024-10-09_12h55.42.840,visualsearch,2024.1.5,None,2024-10-09 12h55.57.467999 +0530,
184,0,184,0,462.015133399982,,461.988481999957,5,462.015133399982,462.015133399982,0.01837790000718087,464.2348980999086,[-0.44537037037037036],[0.45092592592592595],[1],[0],[0],[2.228072499972768],['target'],4,001,2024-10-09_12h55.42.840,visualsearch,2024.1.5,None,2024-10-09 12h55.57.467999 +0530,
185,0,185,0,464.2639784999192,,464.23913849995006,5,464.2639784999192,464.2639784999192,0.016492399969138205,465.88555039989296,[-0.2916666666666667],[0.3175925925925926],[1],[0],[0],[1.6298859000671655],['target'],4,001,2024-10-09_12h55.42.840,visualsearch,2024.1.5,None,2024-10-09 12h55.57.467999 +0530,
186,0,186,0,465.93581219995394,,465.8912759999512,10,465.93581219995394,465.93581219995394,0.03327509993687272,469.9845777999144,[-0.29259259259259257],[-0.3787037037037037],[1],[0],[0],[4.0607180000515655],['target'],4,001,2024-10-09_12h55.42.840,visualsearch,2024.1.5,None,2024-10-09 12h55.57.467999 +0530,
187,0,187,0,470.01396509993356,,469.98940369999036,5,470.01396509993356,470.01396509993356,0.016962299938313663,472.57135289988946,[-0.32037037037037036],[0.46574074074074073],[1],[0],[0],[2.5649681000504643],['target'],4,001,2024-10-09_12h55.42.840,visualsearch,2024.1.5,None,2024-10-09 12h55.57.467999 +0530,
188,0,188,0,472.62165239988826,,472.57886479992885,10,472.62165239988826,472.62165239988826,0.03251220006495714,474.20273159991484,[-0.3907407407407407],[0.14074074074074075],[1],[0],[0],[1.5921710999682546],['target'],4,001,2024-10-09_12h55.42.840,visualsearch,2024.1.5,None,2024-10-09 12h55.57.467999 +0530,
189,0,189,0,474.2365916999988,,474.207746299915,5,474.2365916999988,474.2365916999988,0.02096470003016293,477.5516218999401,[-0.4861111111111111],[0.45740740740740743],[1],[0],[0],[3.3234973999205977],['target'],4,001,2024-10-09_12h55.42.840,visualsearch,2024.1.5,None,2024-10-09 12h55.57.467999 +0530,
190,0,190,0,477.6011417999398,,477.55615489999764,10,477.6011417999398,477.6011417999398,0.03117890004068613,479.004052199889,[-0.38796296296296295],[0.3990740740740741],[1],[0],[0],[1.4166588999796659],['target'],4,001,2024-10-09_12h55.42.840,visualsearch,2024.1.5,None,2024-10-09 12h55.57.467999 +0530,
191,0,191,0,479.05779849993996,,479.00888119998854,10,479.05779849993996,479.05779849993996,0.0334965999936685,481.6183750999626,[0.3592592592592593],[-0.4185185185185185],[1],[0],[0],[2.5766147000249475],['target'],4,001,2024-10-09_12h55.42.840,visualsearch,2024.1.5,None,2024-10-09 12h55.57.467999 +0530,
192,0,192,0,481.6526833999669,,481.6238155999454,5,481.6526833999669,481.6526833999669,0.02010259998496622,491.003509299946,[-0.4888888888888889],[0.1814814814814815],[1],[0],[0],[9.359748400049284],['target'],4,001,2024-10-09_12h55.42.840,visualsearch,2024.1.5,None,2024-10-09 12h55.57.467999 +0530,
193,0,193,0,491.0395032999804,,491.0110252999002,5,491.0395032999804,491.0395032999804,0.021565199946053326,492.6705559999682,[-0.35],[-0.24259259259259258],[1],[0],[0],[1.6386989000020549],['target'],4,001,2024-10-09_12h55.42.840,visualsearch,2024.1.5,None,2024-10-09 12h55.57.467999 +0530,
194,0,194,0,492.72413209988736,,492.67643929994665,10,492.72413209988736,492.72413209988736,0.036728200037032366,494.2681860999437,[0.04814814814814815],[0.31851851851851853],[1],[0],[0],[1.5559529999736696],['target'],4,001,2024-10-09_12h55.42.840,visualsearch,2024.1.5,None,2024-10-09 12h55.57.467999 +0530,
195,0,195,0,494.29822819994297,,494.27235689992085,5,494.29822819994297,494.29822819994297,0.01850049989297986,496.38496059994213,[-0.4648148148148148],[0.29074074074074074],[1],[0],[0],[2.094312599976547],['target'],4,001,2024-10-09_12h55.42.840,visualsearch,2024.1.5,None,2024-10-09 12h55.57.467999 +0530,
196,0,196,0,496.4373120999662,,496.39039789990056,10,496.4373120999662,496.4373120999662,0.03521370002999902,499.0516585999867,[-0.12685185185185185],[-0.43425925925925923],[1],[0],[0],[2.626195100019686],['target'],4,001,2024-10-09_12h55.42.840,visualsearch,2024.1.5,None,2024-10-09 12h55.57.467999 +0530,
197,0,197,0,499.1023072999669,,499.05665839998983,10,499.1023072999669,499.1023072999669,0.030301199993118644,501.08499119989574,[0.16018518518518518],[-0.03796296296296296],[1],[0],[0],[1.9980173000367358],['target'],4,001,2024-10-09_12h55.42.840,visualsearch,2024.1.5,None,2024-10-09 12h55.57.467999 +0530,
198,0,198,0,501.12001339998096,,501.0892025999492,5,501.12001339998096,501.12001339998096,0.019056800054386258,503.70436519989744,[-0.3712962962962963],[0.08611111111111111],[1],[0],[0],[2.5962888000067323],['target'],4,001,2024-10-09_12h55.42.840,visualsearch,2024.1.5,None,2024-10-09 12h55.57.467999 +0530,
199,0,199,0,503.7568305999739,,503.7096277999226,10,503.7568305999739,503.7568305999739,0.0312264000531286,506.43455989996437,[0.43333333333333335],[0.17592592592592593],[1],[0],[0],[2.6941038999939337],['target'],4,001,2024-10-09_12h55.42.840,visualsearch,2024.1.5,None,2024-10-09 12h55.57.467999 +0530,
